[{"view_history":"[{\"page_index\":0,\"viewing_time\":19157},{\"page_index\":1,\"viewing_time\":635},{\"page_index\":2,\"viewing_time\":1315},{\"page_index\":1,\"viewing_time\":10661},{\"page_index\":2,\"viewing_time\":15262},{\"page_index\":3,\"viewing_time\":12933},{\"page_index\":4,\"viewing_time\":8917},{\"page_index\":5,\"viewing_time\":7473}]","rt":76356,"trial_type":"instructions","trial_index":0,"time_elapsed":76358,"internal_node_id":"0.0-0.0"},{"rt":6810,"responses":"{\"Q0\":\"Yes\",\"Q1\":\"Yes\",\"Q2\":\"Yes\"}","question_order":"[0,1,2]","trial_type":"survey-multi-choice","trial_index":1,"time_elapsed":83175,"internal_node_id":"0.0-1.0-0.0"},{"rt":6709.999999999985,"responses":"{\"Q0\":\"Yes\",\"Q1\":\"Yes\",\"Q2\":\"Yes\"}","question_order":"[0,1,2]","trial_type":"survey-multi-choice","trial_index":2,"time_elapsed":89887,"internal_node_id":"0.0-2.0-0.0"},{"rt":3541,"responses":"{\"Q0\":\"6083bbaaa0f85950e5db8811\"}","trial_type":"survey-text","trial_index":3,"time_elapsed":93455,"internal_node_id":"0.0-3.0"},{"rt":5979,"responses":"{\"Q0\":\"Female\",\"Q1\":\"25-34\"}","question_order":"[0,1]","trial_type":"survey-multi-choice","trial_index":4,"time_elapsed":99438,"internal_node_id":"0.0-4.0"},{"rt":3682.0000000000146,"responses":"{\"Q0\":\"\"}","trial_type":"survey-text","trial_index":5,"time_elapsed":103141,"internal_node_id":"0.0-5.0"},{"view_history":"[{\"page_index\":0,\"viewing_time\":2592}]","rt":2592,"trial_type":"instructions","trial_index":6,"time_elapsed":105734,"internal_node_id":"0.0-6.0"},{"rt":12868,"responses":"{\"Interested\":2,\"Distressed\":3,\"Excited\":0,\"Upset\":3}","question_order":"[0,1,2,3]","trial_type":"survey-likert","trial_index":7,"time_elapsed":118612,"internal_node_id":"0.0-7.0"},{"rt":8730,"responses":"{\"Strong\":0,\"Guilty\":3,\"Scared\":3,\"Hostile\":1}","question_order":"[0,1,2,3]","trial_type":"survey-likert","trial_index":8,"time_elapsed":127347,"internal_node_id":"0.0-8.0"},{"rt":10771,"responses":"{\"Enthusiastic\":0,\"Proud\":0,\"Irritable\":3,\"Alert\":2}","question_order":"[0,1,2,3]","trial_type":"survey-likert","trial_index":9,"time_elapsed":138124,"internal_node_id":"0.0-9.0"},{"rt":7082,"responses":"{\"Ashamed\":3,\"Inspired\":0,\"Nervous\":3,\"Determined\":1}","question_order":"[0,1,2,3]","trial_type":"survey-likert","trial_index":10,"time_elapsed":145213,"internal_node_id":"0.0-10.0"},{"rt":9741.99999999997,"responses":"{\"Attentive\":2,\"Jittery\":3,\"Active\":2,\"Afraid\":3}","question_order":"[0,1,2,3]","trial_type":"survey-likert","trial_index":11,"time_elapsed":154961,"internal_node_id":"0.0-11.0"},{"rt":10822,"responses":"{\"Q0\":1,\"Q1\":1,\"Q2\":0,\"Q3\":2}","question_order":"[0,1,2,3]","trial_type":"survey-likert","trial_index":12,"time_elapsed":165789,"internal_node_id":"0.0-12.0"},{"rt":11214,"responses":"{\"Q0\":1,\"Q1\":2,\"Q2\":2,\"Q3\":2}","question_order":"[0,1,2,3]","trial_type":"survey-likert","trial_index":13,"time_elapsed":177008,"internal_node_id":"0.0-13.0"},{"rt":10150.00000000003,"responses":"{\"Q0\":2,\"Q1\":3,\"Q2\":3,\"Q3\":2}","question_order":"[0,1,2,3]","trial_type":"survey-likert","trial_index":14,"time_elapsed":187166,"internal_node_id":"0.0-14.0"},{"rt":6343.999999999971,"responses":"{\"Q0\":2,\"Q1\":2,\"Q2\":2}","question_order":"[0,1,2]","trial_type":"survey-likert","trial_index":15,"time_elapsed":193515,"internal_node_id":"0.0-15.0"},{"view_history":"[{\"page_index\":0,\"viewing_time\":1773},{\"page_index\":1,\"viewing_time\":7866},{\"page_index\":2,\"viewing_time\":7317}]","rt":16956,"trial_type":"instructions","trial_index":16,"time_elapsed":210476,"internal_node_id":"0.0-16.0"},{"rt":4493,"stimulus":"<p>Choose a box,</p>","button_pressed":2,"trial_type":"html-button-response","trial_index":17,"time_elapsed":214977,"internal_node_id":"0.0-17.0-0.0"},{"reward":50,"trial_type":"html-keyboard-response","trial_index":18,"time_elapsed":214979,"internal_node_id":"0.0-17.0-1.0"},{"penalty":50,"trial_type":"html-keyboard-response","trial_index":18,"time_elapsed":214979,"internal_node_id":"0.0-17.0-1.0"},{"fined":true,"trial_type":"html-keyboard-response","trial_index":18,"time_elapsed":214979,"internal_node_id":"0.0-17.0-1.0"},{"rt":null,"stimulus":"<div style=\"background-color:#ff7157\"><h1 style=\"background-color:MediumSeaGreen\">You earned 50 coins</h1><h1 h1 style=\"background-color:Tomato\">but you have recieved a fine of 50 coins</h1><h1 style=\"background-color:Tomato\">Remember, you need to keep going until you have 3000 coins!</h1><img id=\"box\" src=\"img/prizes/50.png\"></img><img id=\"box\" src=\"img/sad/purpleopenboxsadthumb.png\"></img></div>","key_press":null,"trial_type":"html-keyboard-response","trial_index":18,"time_elapsed":217987,"internal_node_id":"0.0-17.0-1.0"},{"rt":2256,"stimulus":"<p>Choose a box,</p>","button_pressed":1,"trial_type":"html-button-response","trial_index":19,"time_elapsed":220248,"internal_node_id":"0.0-17.0-0.1"},{"reward":100,"trial_type":"html-keyboard-response","trial_index":20,"time_elapsed":220250,"internal_node_id":"0.0-17.0-1.1"},{"penalty":1250,"trial_type":"html-keyboard-response","trial_index":20,"time_elapsed":220250,"internal_node_id":"0.0-17.0-1.1"},{"fined":false,"trial_type":"html-keyboard-response","trial_index":20,"time_elapsed":220250,"internal_node_id":"0.0-17.0-1.1"},{"rt":null,"stimulus":"<div style=\"background-color:#6dce98\"><h1 style=\"background-color:MediumSeaGreen\" >You earned 100 coins! Well done!</h1><div style=\"background-color:#6dce98\"><h1 style=\"background-color:MediumSeaGreen\" >Only 1400 left to go!</h1><img id=\"box\" src=\"img/prizes/coins2.png\"></img><img id=\"box\" src=\"img/empty/greenopenbox.png\"></img></div>","key_press":null,"trial_type":"html-keyboard-response","trial_index":20,"time_elapsed":223256,"internal_node_id":"0.0-17.0-1.1"},{"rt":2581.000000000029,"stimulus":"<p>Choose a box,</p>","button_pressed":0,"trial_type":"html-button-response","trial_index":21,"time_elapsed":225843,"internal_node_id":"0.0-17.0-0.2"},{"reward":100,"trial_type":"html-keyboard-response","trial_index":22,"time_elapsed":225844,"internal_node_id":"0.0-17.0-1.2"},{"penalty":250,"trial_type":"html-keyboard-response","trial_index":22,"time_elapsed":225844,"internal_node_id":"0.0-17.0-1.2"},{"fined":true,"trial_type":"html-keyboard-response","trial_index":22,"time_elapsed":225844,"internal_node_id":"0.0-17.0-1.2"},{"rt":null,"stimulus":"<div style=\"background-color:#ff7157\"><h1 style=\"background-color:MediumSeaGreen\">You earned 100 coins</h1><h1 h1 style=\"background-color:Tomato\">but you have recieved a fine of 250 coins</h1><h1 style=\"background-color:Tomato\">Remember, you need to keep going until you have 3000 coins!</h1><img id=\"box\" src=\"img/prizes/250.png\"></img><img id=\"box\" src=\"img/sad/blueopenboxsadthumb.png\"></img></div>","key_press":null,"trial_type":"html-keyboard-response","trial_index":22,"time_elapsed":228848,"internal_node_id":"0.0-17.0-1.2"},{"view_history":"[{\"page_index\":0,\"viewing_time\":5289}]","rt":5289,"trial_type":"instructions","trial_index":23,"time_elapsed":234141,"internal_node_id":"0.0-18.0"},{"rt":1853.000000000029,"stimulus":"<p>Choose a box,</p>","button_pressed":2,"trial_type":"html-button-response","trial_index":24,"time_elapsed":235998,"internal_node_id":"0.0-19.0-0.0"},{"reward":50,"trial_type":"html-keyboard-response","trial_index":25,"time_elapsed":235999,"internal_node_id":"0.0-19.0-1.0"},{"penalty":50,"trial_type":"html-keyboard-response","trial_index":25,"time_elapsed":236000,"internal_node_id":"0.0-19.0-1.0"},{"fined":false,"trial_type":"html-keyboard-response","trial_index":25,"time_elapsed":236000,"internal_node_id":"0.0-19.0-1.0"},{"rt":null,"stimulus":"<div style=\"background-color:#6dce98\"><h1 style=\"background-color:MediumSeaGreen\" >You earned 50 coins! Well done!</h1><div style=\"background-color:#6dce98\"><h1 style=\"background-color:MediumSeaGreen\" >Only 1450 left to go!</h1><img id=\"box\" src=\"img/prizes/coins.png\"></img><img id=\"box\" src=\"img/empty/purpleopenbox.png\"></img></div>","key_press":null,"trial_type":"html-keyboard-response","trial_index":25,"time_elapsed":239005,"internal_node_id":"0.0-19.0-1.0"},{"rt":2462.999999999971,"stimulus":"<p>Choose a box,</p>","button_pressed":3,"trial_type":"html-button-response","trial_index":26,"time_elapsed":241473,"internal_node_id":"0.0-19.1-0.1"},{"reward":50,"trial_type":"html-keyboard-response","trial_index":27,"time_elapsed":241474,"internal_node_id":"0.0-19.1-1.1"},{"penalty":250,"trial_type":"html-keyboard-response","trial_index":27,"time_elapsed":241474,"internal_node_id":"0.0-19.1-1.1"},{"fined":false,"trial_type":"html-keyboard-response","trial_index":27,"time_elapsed":241474,"internal_node_id":"0.0-19.1-1.1"},{"rt":null,"stimulus":"<div style=\"background-color:#6dce98\"><h1 style=\"background-color:MediumSeaGreen\" >You earned 50 coins! Well done!</h1><div style=\"background-color:#6dce98\"><h1 style=\"background-color:MediumSeaGreen\" >Only 1400 left to go!</h1><img id=\"box\" src=\"img/prizes/coins.png\"></img><img id=\"box\" src=\"img/empty/redopenbox.png\"></img></div>","key_press":null,"trial_type":"html-keyboard-response","trial_index":27,"time_elapsed":244480,"internal_node_id":"0.0-19.1-1.1"},{"rt":2147,"stimulus":"<p>Choose a box,</p>","button_pressed":2,"trial_type":"html-button-response","trial_index":28,"time_elapsed":246632,"internal_node_id":"0.0-19.2-0.2"},{"reward":50,"trial_type":"html-keyboard-response","trial_index":29,"time_elapsed":246632,"internal_node_id":"0.0-19.2-1.2"},{"penalty":50,"trial_type":"html-keyboard-response","trial_index":29,"time_elapsed":246633,"internal_node_id":"0.0-19.2-1.2"},{"fined":false,"trial_type":"html-keyboard-response","trial_index":29,"time_elapsed":246633,"internal_node_id":"0.0-19.2-1.2"},{"rt":null,"stimulus":"<div style=\"background-color:#6dce98\"><h1 style=\"background-color:MediumSeaGreen\" >You earned 50 coins! Well done!</h1><div style=\"background-color:#6dce98\"><h1 style=\"background-color:MediumSeaGreen\" >Only 1350 left to go!</h1><img id=\"box\" src=\"img/prizes/coins.png\"></img><img id=\"box\" src=\"img/empty/purpleopenbox.png\"></img></div>","key_press":null,"trial_type":"html-keyboard-response","trial_index":29,"time_elapsed":249637,"internal_node_id":"0.0-19.2-1.2"},{"rt":2079,"stimulus":"<p>Choose a box,</p>","button_pressed":1,"trial_type":"html-button-response","trial_index":30,"time_elapsed":251721,"internal_node_id":"0.0-19.3-0.3"},{"reward":100,"trial_type":"html-keyboard-response","trial_index":31,"time_elapsed":251722,"internal_node_id":"0.0-19.3-1.3"},{"penalty":1250,"trial_type":"html-keyboard-response","trial_index":31,"time_elapsed":251722,"internal_node_id":"0.0-19.3-1.3"},{"fined":false,"trial_type":"html-keyboard-response","trial_index":31,"time_elapsed":251722,"internal_node_id":"0.0-19.3-1.3"},{"rt":null,"stimulus":"<div style=\"background-color:#6dce98\"><h1 style=\"background-color:MediumSeaGreen\" >You earned 100 coins! Well done!</h1><div style=\"background-color:#6dce98\"><h1 style=\"background-color:MediumSeaGreen\" >Only 1250 left to go!</h1><img id=\"box\" src=\"img/prizes/coins2.png\"></img><img id=\"box\" src=\"img/empty/greenopenbox.png\"></img></div>","key_press":null,"trial_type":"html-keyboard-response","trial_index":31,"time_elapsed":254727,"internal_node_id":"0.0-19.3-1.3"},{"rt":1156,"stimulus":"<p>Choose a box,</p>","button_pressed":1,"trial_type":"html-button-response","trial_index":32,"time_elapsed":255888,"internal_node_id":"0.0-19.4-0.4"},{"reward":100,"trial_type":"html-keyboard-response","trial_index":33,"time_elapsed":255889,"internal_node_id":"0.0-19.4-1.4"},{"penalty":1250,"trial_type":"html-keyboard-response","trial_index":33,"time_elapsed":255889,"internal_node_id":"0.0-19.4-1.4"},{"fined":false,"trial_type":"html-keyboard-response","trial_index":33,"time_elapsed":255889,"internal_node_id":"0.0-19.4-1.4"},{"rt":null,"stimulus":"<div style=\"background-color:#6dce98\"><h1 style=\"background-color:MediumSeaGreen\" >You earned 100 coins! Well done!</h1><div style=\"background-color:#6dce98\"><h1 style=\"background-color:MediumSeaGreen\" >Only 1150 left to go!</h1><img id=\"box\" src=\"img/prizes/coins2.png\"></img><img id=\"box\" src=\"img/empty/greenopenbox.png\"></img></div>","key_press":null,"trial_type":"html-keyboard-response","trial_index":33,"time_elapsed":258894,"internal_node_id":"0.0-19.4-1.4"},{"rt":1164.999999999971,"stimulus":"<p>Choose a box,</p>","button_pressed":0,"trial_type":"html-button-response","trial_index":34,"time_elapsed":260065,"internal_node_id":"0.0-19.5-0.5"},{"reward":100,"trial_type":"html-keyboard-response","trial_index":35,"time_elapsed":260066,"internal_node_id":"0.0-19.5-1.5"},{"penalty":250,"trial_type":"html-keyboard-response","trial_index":35,"time_elapsed":260066,"internal_node_id":"0.0-19.5-1.5"},{"fined":true,"trial_type":"html-keyboard-response","trial_index":35,"time_elapsed":260066,"internal_node_id":"0.0-19.5-1.5"},{"rt":null,"stimulus":"<div style=\"background-color:#ff7157\"><h1 style=\"background-color:MediumSeaGreen\">You earned 100 coins</h1><h1 h1 style=\"background-color:Tomato\">but you have recieved a fine of 250 coins</h1><h1 style=\"background-color:Tomato\">Remember, you need to keep going until you have 3000 coins!</h1><img id=\"box\" src=\"img/prizes/250.png\"></img><img id=\"box\" src=\"img/sad/blueopenboxsadthumb.png\"></img></div>","key_press":null,"trial_type":"html-keyboard-response","trial_index":35,"time_elapsed":263071,"internal_node_id":"0.0-19.5-1.5"},{"rt":1105,"stimulus":"<p>Choose a box,</p>","button_pressed":3,"trial_type":"html-button-response","trial_index":36,"time_elapsed":264181,"internal_node_id":"0.0-19.6-0.6"},{"reward":50,"trial_type":"html-keyboard-response","trial_index":37,"time_elapsed":264181,"internal_node_id":"0.0-19.6-1.6"},{"penalty":250,"trial_type":"html-keyboard-response","trial_index":37,"time_elapsed":264181,"internal_node_id":"0.0-19.6-1.6"},{"fined":false,"trial_type":"html-keyboard-response","trial_index":37,"time_elapsed":264181,"internal_node_id":"0.0-19.6-1.6"},{"rt":null,"stimulus":"<div style=\"background-color:#6dce98\"><h1 style=\"background-color:MediumSeaGreen\" >You earned 50 coins! Well done!</h1><div style=\"background-color:#6dce98\"><h1 style=\"background-color:MediumSeaGreen\" >Only 1250 left to go!</h1><img id=\"box\" src=\"img/prizes/coins.png\"></img><img id=\"box\" src=\"img/empty/redopenbox.png\"></img></div>","key_press":null,"trial_type":"html-keyboard-response","trial_index":37,"time_elapsed":267186,"internal_node_id":"0.0-19.6-1.6"},{"rt":1148,"stimulus":"<p>Choose a box,</p>","button_pressed":1,"trial_type":"html-button-response","trial_index":38,"time_elapsed":268339,"internal_node_id":"0.0-19.7-0.7"},{"reward":100,"trial_type":"html-keyboard-response","trial_index":39,"time_elapsed":268339,"internal_node_id":"0.0-19.7-1.7"},{"penalty":1250,"trial_type":"html-keyboard-response","trial_index":39,"time_elapsed":268339,"internal_node_id":"0.0-19.7-1.7"},{"fined":false,"trial_type":"html-keyboard-response","trial_index":39,"time_elapsed":268339,"internal_node_id":"0.0-19.7-1.7"},{"rt":null,"stimulus":"<div style=\"background-color:#6dce98\"><h1 style=\"background-color:MediumSeaGreen\" >You earned 100 coins! Well done!</h1><div style=\"background-color:#6dce98\"><h1 style=\"background-color:MediumSeaGreen\" >Only 1150 left to go!</h1><img id=\"box\" src=\"img/prizes/coins2.png\"></img><img id=\"box\" src=\"img/empty/greenopenbox.png\"></img></div>","key_press":null,"trial_type":"html-keyboard-response","trial_index":39,"time_elapsed":271344,"internal_node_id":"0.0-19.7-1.7"},{"rt":1141.0000000000582,"stimulus":"<p>Choose a box,</p>","button_pressed":2,"trial_type":"html-button-response","trial_index":40,"time_elapsed":272488,"internal_node_id":"0.0-19.8-0.8"},{"reward":50,"trial_type":"html-keyboard-response","trial_index":41,"time_elapsed":272489,"internal_node_id":"0.0-19.8-1.8"},{"penalty":50,"trial_type":"html-keyboard-response","trial_index":41,"time_elapsed":272489,"internal_node_id":"0.0-19.8-1.8"},{"fined":false,"trial_type":"html-keyboard-response","trial_index":41,"time_elapsed":272489,"internal_node_id":"0.0-19.8-1.8"},{"rt":null,"stimulus":"<div style=\"background-color:#6dce98\"><h1 style=\"background-color:MediumSeaGreen\" >You earned 50 coins! Well done!</h1><div style=\"background-color:#6dce98\"><h1 style=\"background-color:MediumSeaGreen\" >Only 1100 left to go!</h1><img id=\"box\" src=\"img/prizes/coins.png\"></img><img id=\"box\" src=\"img/empty/purpleopenbox.png\"></img></div>","key_press":null,"trial_type":"html-keyboard-response","trial_index":41,"time_elapsed":275494,"internal_node_id":"0.0-19.8-1.8"},{"rt":2298,"stimulus":"<p>Choose a box,</p>","button_pressed":2,"trial_type":"html-button-response","trial_index":42,"time_elapsed":277796,"internal_node_id":"0.0-19.9-0.9"},{"reward":50,"trial_type":"html-keyboard-response","trial_index":43,"time_elapsed":277796,"internal_node_id":"0.0-19.9-1.9"},{"penalty":50,"trial_type":"html-keyboard-response","trial_index":43,"time_elapsed":277796,"internal_node_id":"0.0-19.9-1.9"},{"fined":false,"trial_type":"html-keyboard-response","trial_index":43,"time_elapsed":277796,"internal_node_id":"0.0-19.9-1.9"},{"rt":null,"stimulus":"<div style=\"background-color:#6dce98\"><h1 style=\"background-color:MediumSeaGreen\" >You earned 50 coins! Well done!</h1><div style=\"background-color:#6dce98\"><h1 style=\"background-color:MediumSeaGreen\" >Only 1050 left to go!</h1><img id=\"box\" src=\"img/prizes/coins.png\"></img><img id=\"box\" src=\"img/empty/purpleopenbox.png\"></img></div>","key_press":null,"trial_type":"html-keyboard-response","trial_index":43,"time_elapsed":280802,"internal_node_id":"0.0-19.9-1.9"},{"rt":1012,"stimulus":"<p>Choose a box,</p>","button_pressed":1,"trial_type":"html-button-response","trial_index":44,"time_elapsed":281820,"internal_node_id":"0.0-19.10-0.10"},{"reward":100,"trial_type":"html-keyboard-response","trial_index":45,"time_elapsed":281820,"internal_node_id":"0.0-19.10-1.10"},{"penalty":1250,"trial_type":"html-keyboard-response","trial_index":45,"time_elapsed":281820,"internal_node_id":"0.0-19.10-1.10"},{"fined":false,"trial_type":"html-keyboard-response","trial_index":45,"time_elapsed":281820,"internal_node_id":"0.0-19.10-1.10"},{"rt":null,"stimulus":"<div style=\"background-color:#6dce98\"><h1 style=\"background-color:MediumSeaGreen\" >You earned 100 coins! Well done!</h1><div style=\"background-color:#6dce98\"><h1 style=\"background-color:MediumSeaGreen\" >Only 950 left to go!</h1><img id=\"box\" src=\"img/prizes/coins2.png\"></img><img id=\"box\" src=\"img/empty/greenopenbox.png\"></img></div>","key_press":null,"trial_type":"html-keyboard-response","trial_index":45,"time_elapsed":284824,"internal_node_id":"0.0-19.10-1.10"},{"rt":953,"stimulus":"<p>Choose a box,</p>","button_pressed":1,"trial_type":"html-button-response","trial_index":46,"time_elapsed":285780,"internal_node_id":"0.0-19.11-0.11"},{"reward":100,"trial_type":"html-keyboard-response","trial_index":47,"time_elapsed":285780,"internal_node_id":"0.0-19.11-1.11"},{"penalty":1250,"trial_type":"html-keyboard-response","trial_index":47,"time_elapsed":285780,"internal_node_id":"0.0-19.11-1.11"},{"fined":false,"trial_type":"html-keyboard-response","trial_index":47,"time_elapsed":285780,"internal_node_id":"0.0-19.11-1.11"},{"rt":null,"stimulus":"<div style=\"background-color:#6dce98\"><h1 style=\"background-color:MediumSeaGreen\" >You earned 100 coins! Well done!</h1><div style=\"background-color:#6dce98\"><h1 style=\"background-color:MediumSeaGreen\" >Only 850 left to go!</h1><img id=\"box\" src=\"img/prizes/coins2.png\"></img><img id=\"box\" src=\"img/empty/greenopenbox.png\"></img></div>","key_press":null,"trial_type":"html-keyboard-response","trial_index":47,"time_elapsed":288785,"internal_node_id":"0.0-19.11-1.11"},{"rt":935,"stimulus":"<p>Choose a box,</p>","button_pressed":1,"trial_type":"html-button-response","trial_index":48,"time_elapsed":289724,"internal_node_id":"0.0-19.12-0.12"},{"reward":100,"trial_type":"html-keyboard-response","trial_index":49,"time_elapsed":289724,"internal_node_id":"0.0-19.12-1.12"},{"penalty":1250,"trial_type":"html-keyboard-response","trial_index":49,"time_elapsed":289724,"internal_node_id":"0.0-19.12-1.12"},{"fined":false,"trial_type":"html-keyboard-response","trial_index":49,"time_elapsed":289724,"internal_node_id":"0.0-19.12-1.12"},{"rt":null,"stimulus":"<div style=\"background-color:#6dce98\"><h1 style=\"background-color:MediumSeaGreen\" >You earned 100 coins! Well done!</h1><div style=\"background-color:#6dce98\"><h1 style=\"background-color:MediumSeaGreen\" >Only 750 left to go!</h1><img id=\"box\" src=\"img/prizes/coins2.png\"></img><img id=\"box\" src=\"img/empty/greenopenbox.png\"></img></div>","key_press":null,"trial_type":"html-keyboard-response","trial_index":49,"time_elapsed":292729,"internal_node_id":"0.0-19.12-1.12"},{"rt":920,"stimulus":"<p>Choose a box,</p>","button_pressed":1,"trial_type":"html-button-response","trial_index":50,"time_elapsed":293653,"internal_node_id":"0.0-19.13-0.13"},{"reward":100,"trial_type":"html-keyboard-response","trial_index":51,"time_elapsed":293654,"internal_node_id":"0.0-19.13-1.13"},{"penalty":1250,"trial_type":"html-keyboard-response","trial_index":51,"time_elapsed":293654,"internal_node_id":"0.0-19.13-1.13"},{"fined":false,"trial_type":"html-keyboard-response","trial_index":51,"time_elapsed":293654,"internal_node_id":"0.0-19.13-1.13"},{"rt":null,"stimulus":"<div style=\"background-color:#6dce98\"><h1 style=\"background-color:MediumSeaGreen\" >You earned 100 coins! Well done!</h1><div style=\"background-color:#6dce98\"><h1 style=\"background-color:MediumSeaGreen\" >Only 650 left to go!</h1><img id=\"box\" src=\"img/prizes/coins2.png\"></img><img id=\"box\" src=\"img/empty/greenopenbox.png\"></img></div>","key_press":null,"trial_type":"html-keyboard-response","trial_index":51,"time_elapsed":296661,"internal_node_id":"0.0-19.13-1.13"},{"rt":841,"stimulus":"<p>Choose a box,</p>","button_pressed":3,"trial_type":"html-button-response","trial_index":52,"time_elapsed":297507,"internal_node_id":"0.0-19.14-0.14"},{"reward":50,"trial_type":"html-keyboard-response","trial_index":53,"time_elapsed":297508,"internal_node_id":"0.0-19.14-1.14"},{"penalty":250,"trial_type":"html-keyboard-response","trial_index":53,"time_elapsed":297508,"internal_node_id":"0.0-19.14-1.14"},{"fined":true,"trial_type":"html-keyboard-response","trial_index":53,"time_elapsed":297508,"internal_node_id":"0.0-19.14-1.14"},{"rt":null,"stimulus":"<div style=\"background-color:#ff7157\"><h1 style=\"background-color:MediumSeaGreen\">You earned 50 coins</h1><h1 h1 style=\"background-color:Tomato\">but you have recieved a fine of 250 coins</h1><h1 style=\"background-color:Tomato\">Remember, you need to keep going until you have 3000 coins!</h1><img id=\"box\" src=\"img/prizes/250.png\"></img><img id=\"box\" src=\"img/sad/redopenboxsadthumb.png\"></img></div>","key_press":null,"trial_type":"html-keyboard-response","trial_index":53,"time_elapsed":300513,"internal_node_id":"0.0-19.14-1.14"},{"rt":990,"stimulus":"<p>Choose a box,</p>","button_pressed":1,"trial_type":"html-button-response","trial_index":54,"time_elapsed":301507,"internal_node_id":"0.0-19.15-0.15"},{"reward":100,"trial_type":"html-keyboard-response","trial_index":55,"time_elapsed":301508,"internal_node_id":"0.0-19.15-1.15"},{"penalty":1250,"trial_type":"html-keyboard-response","trial_index":55,"time_elapsed":301508,"internal_node_id":"0.0-19.15-1.15"},{"fined":false,"trial_type":"html-keyboard-response","trial_index":55,"time_elapsed":301508,"internal_node_id":"0.0-19.15-1.15"},{"rt":null,"stimulus":"<div style=\"background-color:#6dce98\"><h1 style=\"background-color:MediumSeaGreen\" >You earned 100 coins! Well done!</h1><div style=\"background-color:#6dce98\"><h1 style=\"background-color:MediumSeaGreen\" >Only 750 left to go!</h1><img id=\"box\" src=\"img/prizes/coins2.png\"></img><img id=\"box\" src=\"img/empty/greenopenbox.png\"></img></div>","key_press":null,"trial_type":"html-keyboard-response","trial_index":55,"time_elapsed":304513,"internal_node_id":"0.0-19.15-1.15"},{"rt":878,"stimulus":"<p>Choose a box,</p>","button_pressed":1,"trial_type":"html-button-response","trial_index":56,"time_elapsed":305395,"internal_node_id":"0.0-19.16-0.16"},{"reward":100,"trial_type":"html-keyboard-response","trial_index":57,"time_elapsed":305396,"internal_node_id":"0.0-19.16-1.16"},{"penalty":1250,"trial_type":"html-keyboard-response","trial_index":57,"time_elapsed":305396,"internal_node_id":"0.0-19.16-1.16"},{"fined":false,"trial_type":"html-keyboard-response","trial_index":57,"time_elapsed":305396,"internal_node_id":"0.0-19.16-1.16"},{"rt":null,"stimulus":"<div style=\"background-color:#6dce98\"><h1 style=\"background-color:MediumSeaGreen\" >You earned 100 coins! Well done!</h1><div style=\"background-color:#6dce98\"><h1 style=\"background-color:MediumSeaGreen\" >Only 650 left to go!</h1><img id=\"box\" src=\"img/prizes/coins2.png\"></img><img id=\"box\" src=\"img/empty/greenopenbox.png\"></img></div>","key_press":null,"trial_type":"html-keyboard-response","trial_index":57,"time_elapsed":308401,"internal_node_id":"0.0-19.16-1.16"},{"rt":899,"stimulus":"<p>Choose a box,</p>","button_pressed":1,"trial_type":"html-button-response","trial_index":58,"time_elapsed":309304,"internal_node_id":"0.0-19.17-0.17"},{"reward":100,"trial_type":"html-keyboard-response","trial_index":59,"time_elapsed":309304,"internal_node_id":"0.0-19.17-1.17"},{"penalty":1250,"trial_type":"html-keyboard-response","trial_index":59,"time_elapsed":309305,"internal_node_id":"0.0-19.17-1.17"},{"fined":false,"trial_type":"html-keyboard-response","trial_index":59,"time_elapsed":309305,"internal_node_id":"0.0-19.17-1.17"},{"rt":null,"stimulus":"<div style=\"background-color:#6dce98\"><h1 style=\"background-color:MediumSeaGreen\" >You earned 100 coins! Well done!</h1><div style=\"background-color:#6dce98\"><h1 style=\"background-color:MediumSeaGreen\" >Only 550 left to go!</h1><img id=\"box\" src=\"img/prizes/coins2.png\"></img><img id=\"box\" src=\"img/empty/greenopenbox.png\"></img></div>","key_press":null,"trial_type":"html-keyboard-response","trial_index":59,"time_elapsed":312309,"internal_node_id":"0.0-19.17-1.17"},{"rt":989,"stimulus":"<p>Choose a box,</p>","button_pressed":2,"trial_type":"html-button-response","trial_index":60,"time_elapsed":313303,"internal_node_id":"0.0-19.18-0.18"},{"reward":50,"trial_type":"html-keyboard-response","trial_index":61,"time_elapsed":313303,"internal_node_id":"0.0-19.18-1.18"},{"penalty":50,"trial_type":"html-keyboard-response","trial_index":61,"time_elapsed":313304,"internal_node_id":"0.0-19.18-1.18"},{"fined":true,"trial_type":"html-keyboard-response","trial_index":61,"time_elapsed":313304,"internal_node_id":"0.0-19.18-1.18"},{"rt":null,"stimulus":"<div style=\"background-color:#ff7157\"><h1 style=\"background-color:MediumSeaGreen\">You earned 50 coins</h1><h1 h1 style=\"background-color:Tomato\">but you have recieved a fine of 50 coins</h1><h1 style=\"background-color:Tomato\">Remember, you need to keep going until you have 3000 coins!</h1><img id=\"box\" src=\"img/prizes/50.png\"></img><img id=\"box\" src=\"img/sad/purpleopenboxsadthumb.png\"></img></div>","key_press":null,"trial_type":"html-keyboard-response","trial_index":61,"time_elapsed":316309,"internal_node_id":"0.0-19.18-1.18"},{"rt":1373.0000000000582,"stimulus":"<p>Choose a box,</p>","button_pressed":1,"trial_type":"html-button-response","trial_index":62,"time_elapsed":317686,"internal_node_id":"0.0-19.19-0.19"},{"reward":100,"trial_type":"html-keyboard-response","trial_index":63,"time_elapsed":317687,"internal_node_id":"0.0-19.19-1.19"},{"penalty":1250,"trial_type":"html-keyboard-response","trial_index":63,"time_elapsed":317687,"internal_node_id":"0.0-19.19-1.19"},{"fined":false,"trial_type":"html-keyboard-response","trial_index":63,"time_elapsed":317687,"internal_node_id":"0.0-19.19-1.19"},{"rt":null,"stimulus":"<div style=\"background-color:#6dce98\"><h1 style=\"background-color:MediumSeaGreen\" >You earned 100 coins! Well done!</h1><div style=\"background-color:#6dce98\"><h1 style=\"background-color:MediumSeaGreen\" >Only 450 left to go!</h1><img id=\"box\" src=\"img/prizes/coins2.png\"></img><img id=\"box\" src=\"img/empty/greenopenbox.png\"></img></div>","key_press":null,"trial_type":"html-keyboard-response","trial_index":63,"time_elapsed":320691,"internal_node_id":"0.0-19.19-1.19"},{"rt":1026,"stimulus":"<p>Choose a box,</p>","button_pressed":0,"trial_type":"html-button-response","trial_index":64,"time_elapsed":321720,"internal_node_id":"0.0-19.20-0.20"},{"reward":100,"trial_type":"html-keyboard-response","trial_index":65,"time_elapsed":321721,"internal_node_id":"0.0-19.20-1.20"},{"penalty":250,"trial_type":"html-keyboard-response","trial_index":65,"time_elapsed":321721,"internal_node_id":"0.0-19.20-1.20"},{"fined":true,"trial_type":"html-keyboard-response","trial_index":65,"time_elapsed":321721,"internal_node_id":"0.0-19.20-1.20"},{"rt":null,"stimulus":"<div style=\"background-color:#ff7157\"><h1 style=\"background-color:MediumSeaGreen\">You earned 100 coins</h1><h1 h1 style=\"background-color:Tomato\">but you have recieved a fine of 250 coins</h1><h1 style=\"background-color:Tomato\">Remember, you need to keep going until you have 3000 coins!</h1><img id=\"box\" src=\"img/prizes/250.png\"></img><img id=\"box\" src=\"img/sad/blueopenboxsadthumb.png\"></img></div>","key_press":null,"trial_type":"html-keyboard-response","trial_index":65,"time_elapsed":324725,"internal_node_id":"0.0-19.20-1.20"},{"rt":880.0000000000582,"stimulus":"<p>Choose a box,</p>","button_pressed":1,"trial_type":"html-button-response","trial_index":66,"time_elapsed":325609,"internal_node_id":"0.0-19.21-0.21"},{"reward":100,"trial_type":"html-keyboard-response","trial_index":67,"time_elapsed":325610,"internal_node_id":"0.0-19.21-1.21"},{"penalty":1250,"trial_type":"html-keyboard-response","trial_index":67,"time_elapsed":325610,"internal_node_id":"0.0-19.21-1.21"},{"fined":true,"trial_type":"html-keyboard-response","trial_index":67,"time_elapsed":325610,"internal_node_id":"0.0-19.21-1.21"},{"rt":null,"stimulus":"<div style=\"background-color:#ff7157\"><h1 style=\"background-color:MediumSeaGreen\">You earned 100 coins</h1><h1 h1 style=\"background-color:Tomato\">but you have recieved a fine of 1250 coins</h1><h1 style=\"background-color:Tomato\">Remember, you need to keep going until you have 3000 coins!</h1><img id=\"box\" src=\"img/prizes/1250.png\"></img><img id=\"box\" src=\"img/sad/greenopenboxsadthumb.png\"></img></div>","key_press":null,"trial_type":"html-keyboard-response","trial_index":67,"time_elapsed":328615,"internal_node_id":"0.0-19.21-1.21"},{"rt":1049,"stimulus":"<p>Choose a box,</p>","button_pressed":3,"trial_type":"html-button-response","trial_index":68,"time_elapsed":329669,"internal_node_id":"0.0-19.22-0.22"},{"reward":50,"trial_type":"html-keyboard-response","trial_index":69,"time_elapsed":329670,"internal_node_id":"0.0-19.22-1.22"},{"penalty":250,"trial_type":"html-keyboard-response","trial_index":69,"time_elapsed":329670,"internal_node_id":"0.0-19.22-1.22"},{"fined":false,"trial_type":"html-keyboard-response","trial_index":69,"time_elapsed":329670,"internal_node_id":"0.0-19.22-1.22"},{"rt":null,"stimulus":"<div style=\"background-color:#6dce98\"><h1 style=\"background-color:MediumSeaGreen\" >You earned 50 coins! Well done!</h1><div style=\"background-color:#6dce98\"><h1 style=\"background-color:MediumSeaGreen\" >Only 1700 left to go!</h1><img id=\"box\" src=\"img/prizes/coins.png\"></img><img id=\"box\" src=\"img/empty/redopenbox.png\"></img></div>","key_press":null,"trial_type":"html-keyboard-response","trial_index":69,"time_elapsed":332675,"internal_node_id":"0.0-19.22-1.22"},{"rt":2557,"stimulus":"<p>Choose a box,</p>","button_pressed":2,"trial_type":"html-button-response","trial_index":70,"time_elapsed":335236,"internal_node_id":"0.0-19.23-0.23"},{"reward":50,"trial_type":"html-keyboard-response","trial_index":71,"time_elapsed":335237,"internal_node_id":"0.0-19.23-1.23"},{"penalty":50,"trial_type":"html-keyboard-response","trial_index":71,"time_elapsed":335237,"internal_node_id":"0.0-19.23-1.23"},{"fined":true,"trial_type":"html-keyboard-response","trial_index":71,"time_elapsed":335237,"internal_node_id":"0.0-19.23-1.23"},{"rt":null,"stimulus":"<div style=\"background-color:#ff7157\"><h1 style=\"background-color:MediumSeaGreen\">You earned 50 coins</h1><h1 h1 style=\"background-color:Tomato\">but you have recieved a fine of 50 coins</h1><h1 style=\"background-color:Tomato\">Remember, you need to keep going until you have 3000 coins!</h1><img id=\"box\" src=\"img/prizes/50.png\"></img><img id=\"box\" src=\"img/sad/purpleopenboxsadthumb.png\"></img></div>","key_press":null,"trial_type":"html-keyboard-response","trial_index":71,"time_elapsed":338242,"internal_node_id":"0.0-19.23-1.23"},{"rt":906.9999999999418,"stimulus":"<p>Choose a box,</p>","button_pressed":1,"trial_type":"html-button-response","trial_index":72,"time_elapsed":339152,"internal_node_id":"0.0-19.24-0.24"},{"reward":100,"trial_type":"html-keyboard-response","trial_index":73,"time_elapsed":339153,"internal_node_id":"0.0-19.24-1.24"},{"penalty":1250,"trial_type":"html-keyboard-response","trial_index":73,"time_elapsed":339153,"internal_node_id":"0.0-19.24-1.24"},{"fined":false,"trial_type":"html-keyboard-response","trial_index":73,"time_elapsed":339153,"internal_node_id":"0.0-19.24-1.24"},{"rt":null,"stimulus":"<div style=\"background-color:#6dce98\"><h1 style=\"background-color:MediumSeaGreen\" >You earned 100 coins! Well done!</h1><div style=\"background-color:#6dce98\"><h1 style=\"background-color:MediumSeaGreen\" >Only 1600 left to go!</h1><img id=\"box\" src=\"img/prizes/coins2.png\"></img><img id=\"box\" src=\"img/empty/greenopenbox.png\"></img></div>","key_press":null,"trial_type":"html-keyboard-response","trial_index":73,"time_elapsed":342158,"internal_node_id":"0.0-19.24-1.24"},{"rt":956.9999999999418,"stimulus":"<p>Choose a box,</p>","button_pressed":1,"trial_type":"html-button-response","trial_index":74,"time_elapsed":343119,"internal_node_id":"0.0-19.25-0.25"},{"reward":100,"trial_type":"html-keyboard-response","trial_index":75,"time_elapsed":343120,"internal_node_id":"0.0-19.25-1.25"},{"penalty":1250,"trial_type":"html-keyboard-response","trial_index":75,"time_elapsed":343120,"internal_node_id":"0.0-19.25-1.25"},{"fined":false,"trial_type":"html-keyboard-response","trial_index":75,"time_elapsed":343120,"internal_node_id":"0.0-19.25-1.25"},{"rt":null,"stimulus":"<div style=\"background-color:#6dce98\"><h1 style=\"background-color:MediumSeaGreen\" >You earned 100 coins! Well done!</h1><div style=\"background-color:#6dce98\"><h1 style=\"background-color:MediumSeaGreen\" >Only 1500 left to go!</h1><img id=\"box\" src=\"img/prizes/coins2.png\"></img><img id=\"box\" src=\"img/empty/greenopenbox.png\"></img></div>","key_press":null,"trial_type":"html-keyboard-response","trial_index":75,"time_elapsed":346125,"internal_node_id":"0.0-19.25-1.25"},{"rt":920,"stimulus":"<p>Choose a box,</p>","button_pressed":1,"trial_type":"html-button-response","trial_index":76,"time_elapsed":347048,"internal_node_id":"0.0-19.26-0.26"},{"reward":100,"trial_type":"html-keyboard-response","trial_index":77,"time_elapsed":347049,"internal_node_id":"0.0-19.26-1.26"},{"penalty":1250,"trial_type":"html-keyboard-response","trial_index":77,"time_elapsed":347049,"internal_node_id":"0.0-19.26-1.26"},{"fined":false,"trial_type":"html-keyboard-response","trial_index":77,"time_elapsed":347049,"internal_node_id":"0.0-19.26-1.26"},{"rt":null,"stimulus":"<div style=\"background-color:#6dce98\"><h1 style=\"background-color:MediumSeaGreen\" >You earned 100 coins! Well done!</h1><div style=\"background-color:#6dce98\"><h1 style=\"background-color:MediumSeaGreen\" >Only 1400 left to go!</h1><img id=\"box\" src=\"img/prizes/coins2.png\"></img><img id=\"box\" src=\"img/empty/greenopenbox.png\"></img></div>","key_press":null,"trial_type":"html-keyboard-response","trial_index":77,"time_elapsed":350054,"internal_node_id":"0.0-19.26-1.26"},{"rt":936,"stimulus":"<p>Choose a box,</p>","button_pressed":1,"trial_type":"html-button-response","trial_index":78,"time_elapsed":350994,"internal_node_id":"0.0-19.27-0.27"},{"reward":100,"trial_type":"html-keyboard-response","trial_index":79,"time_elapsed":350994,"internal_node_id":"0.0-19.27-1.27"},{"penalty":1250,"trial_type":"html-keyboard-response","trial_index":79,"time_elapsed":350994,"internal_node_id":"0.0-19.27-1.27"},{"fined":false,"trial_type":"html-keyboard-response","trial_index":79,"time_elapsed":350994,"internal_node_id":"0.0-19.27-1.27"},{"rt":null,"stimulus":"<div style=\"background-color:#6dce98\"><h1 style=\"background-color:MediumSeaGreen\" >You earned 100 coins! Well done!</h1><div style=\"background-color:#6dce98\"><h1 style=\"background-color:MediumSeaGreen\" >Only 1300 left to go!</h1><img id=\"box\" src=\"img/prizes/coins2.png\"></img><img id=\"box\" src=\"img/empty/greenopenbox.png\"></img></div>","key_press":null,"trial_type":"html-keyboard-response","trial_index":79,"time_elapsed":353999,"internal_node_id":"0.0-19.27-1.27"},{"rt":1115,"stimulus":"<p>Choose a box,</p>","button_pressed":3,"trial_type":"html-button-response","trial_index":80,"time_elapsed":355118,"internal_node_id":"0.0-19.28-0.28"},{"reward":50,"trial_type":"html-keyboard-response","trial_index":81,"time_elapsed":355119,"internal_node_id":"0.0-19.28-1.28"},{"penalty":250,"trial_type":"html-keyboard-response","trial_index":81,"time_elapsed":355119,"internal_node_id":"0.0-19.28-1.28"},{"fined":true,"trial_type":"html-keyboard-response","trial_index":81,"time_elapsed":355119,"internal_node_id":"0.0-19.28-1.28"},{"rt":null,"stimulus":"<div style=\"background-color:#ff7157\"><h1 style=\"background-color:MediumSeaGreen\">You earned 50 coins</h1><h1 h1 style=\"background-color:Tomato\">but you have recieved a fine of 250 coins</h1><h1 style=\"background-color:Tomato\">Remember, you need to keep going until you have 3000 coins!</h1><img id=\"box\" src=\"img/prizes/250.png\"></img><img id=\"box\" src=\"img/sad/redopenboxsadthumb.png\"></img></div>","key_press":null,"trial_type":"html-keyboard-response","trial_index":81,"time_elapsed":358125,"internal_node_id":"0.0-19.28-1.28"},{"rt":963,"stimulus":"<p>Choose a box,</p>","button_pressed":1,"trial_type":"html-button-response","trial_index":82,"time_elapsed":359093,"internal_node_id":"0.0-19.29-0.29"},{"reward":100,"trial_type":"html-keyboard-response","trial_index":83,"time_elapsed":359093,"internal_node_id":"0.0-19.29-1.29"},{"penalty":1250,"trial_type":"html-keyboard-response","trial_index":83,"time_elapsed":359093,"internal_node_id":"0.0-19.29-1.29"},{"fined":false,"trial_type":"html-keyboard-response","trial_index":83,"time_elapsed":359093,"internal_node_id":"0.0-19.29-1.29"},{"rt":null,"stimulus":"<div style=\"background-color:#6dce98\"><h1 style=\"background-color:MediumSeaGreen\" >You earned 100 coins! Well done!</h1><div style=\"background-color:#6dce98\"><h1 style=\"background-color:MediumSeaGreen\" >Only 1400 left to go!</h1><img id=\"box\" src=\"img/prizes/coins2.png\"></img><img id=\"box\" src=\"img/empty/greenopenbox.png\"></img></div>","key_press":null,"trial_type":"html-keyboard-response","trial_index":83,"time_elapsed":362098,"internal_node_id":"0.0-19.29-1.29"},{"rt":892.9999999999418,"stimulus":"<p>Choose a box,</p>","button_pressed":1,"trial_type":"html-button-response","trial_index":84,"time_elapsed":362996,"internal_node_id":"0.0-19.30-0.30"},{"reward":100,"trial_type":"html-keyboard-response","trial_index":85,"time_elapsed":362997,"internal_node_id":"0.0-19.30-1.30"},{"penalty":1250,"trial_type":"html-keyboard-response","trial_index":85,"time_elapsed":362997,"internal_node_id":"0.0-19.30-1.30"},{"fined":false,"trial_type":"html-keyboard-response","trial_index":85,"time_elapsed":362997,"internal_node_id":"0.0-19.30-1.30"},{"rt":null,"stimulus":"<div style=\"background-color:#6dce98\"><h1 style=\"background-color:MediumSeaGreen\" >You earned 100 coins! Well done!</h1><div style=\"background-color:#6dce98\"><h1 style=\"background-color:MediumSeaGreen\" >Only 1300 left to go!</h1><img id=\"box\" src=\"img/prizes/coins2.png\"></img><img id=\"box\" src=\"img/empty/greenopenbox.png\"></img></div>","key_press":null,"trial_type":"html-keyboard-response","trial_index":85,"time_elapsed":366002,"internal_node_id":"0.0-19.30-1.30"},{"rt":855,"stimulus":"<p>Choose a box,</p>","button_pressed":1,"trial_type":"html-button-response","trial_index":86,"time_elapsed":366861,"internal_node_id":"0.0-19.31-0.31"},{"reward":100,"trial_type":"html-keyboard-response","trial_index":87,"time_elapsed":366861,"internal_node_id":"0.0-19.31-1.31"},{"penalty":1250,"trial_type":"html-keyboard-response","trial_index":87,"time_elapsed":366862,"internal_node_id":"0.0-19.31-1.31"},{"fined":false,"trial_type":"html-keyboard-response","trial_index":87,"time_elapsed":366862,"internal_node_id":"0.0-19.31-1.31"},{"rt":null,"stimulus":"<div style=\"background-color:#6dce98\"><h1 style=\"background-color:MediumSeaGreen\" >You earned 100 coins! Well done!</h1><div style=\"background-color:#6dce98\"><h1 style=\"background-color:MediumSeaGreen\" >Only 1200 left to go!</h1><img id=\"box\" src=\"img/prizes/coins2.png\"></img><img id=\"box\" src=\"img/empty/greenopenbox.png\"></img></div>","key_press":null,"trial_type":"html-keyboard-response","trial_index":87,"time_elapsed":369866,"internal_node_id":"0.0-19.31-1.31"},{"rt":847,"stimulus":"<p>Choose a box,</p>","button_pressed":1,"trial_type":"html-button-response","trial_index":88,"time_elapsed":370717,"internal_node_id":"0.0-19.32-0.32"},{"reward":100,"trial_type":"html-keyboard-response","trial_index":89,"time_elapsed":370718,"internal_node_id":"0.0-19.32-1.32"},{"penalty":1250,"trial_type":"html-keyboard-response","trial_index":89,"time_elapsed":370718,"internal_node_id":"0.0-19.32-1.32"},{"fined":false,"trial_type":"html-keyboard-response","trial_index":89,"time_elapsed":370718,"internal_node_id":"0.0-19.32-1.32"},{"rt":null,"stimulus":"<div style=\"background-color:#6dce98\"><h1 style=\"background-color:MediumSeaGreen\" >You earned 100 coins! Well done!</h1><div style=\"background-color:#6dce98\"><h1 style=\"background-color:MediumSeaGreen\" >Only 1100 left to go!</h1><img id=\"box\" src=\"img/prizes/coins2.png\"></img><img id=\"box\" src=\"img/empty/greenopenbox.png\"></img></div>","key_press":null,"trial_type":"html-keyboard-response","trial_index":89,"time_elapsed":373723,"internal_node_id":"0.0-19.32-1.32"},{"rt":901,"stimulus":"<p>Choose a box,</p>","button_pressed":1,"trial_type":"html-button-response","trial_index":90,"time_elapsed":374642,"internal_node_id":"0.0-19.33-0.33"},{"reward":100,"trial_type":"html-keyboard-response","trial_index":91,"time_elapsed":374643,"internal_node_id":"0.0-19.33-1.33"},{"penalty":1250,"trial_type":"html-keyboard-response","trial_index":91,"time_elapsed":374643,"internal_node_id":"0.0-19.33-1.33"},{"fined":false,"trial_type":"html-keyboard-response","trial_index":91,"time_elapsed":374643,"internal_node_id":"0.0-19.33-1.33"},{"rt":null,"stimulus":"<div style=\"background-color:#6dce98\"><h1 style=\"background-color:MediumSeaGreen\" >You earned 100 coins! Well done!</h1><div style=\"background-color:#6dce98\"><h1 style=\"background-color:MediumSeaGreen\" >Only 1000 left to go!</h1><img id=\"box\" src=\"img/prizes/coins2.png\"></img><img id=\"box\" src=\"img/empty/greenopenbox.png\"></img></div>","key_press":null,"trial_type":"html-keyboard-response","trial_index":91,"time_elapsed":377648,"internal_node_id":"0.0-19.33-1.33"},{"rt":842,"stimulus":"<p>Choose a box,</p>","button_pressed":1,"trial_type":"html-button-response","trial_index":92,"time_elapsed":378494,"internal_node_id":"0.0-19.34-0.34"},{"reward":100,"trial_type":"html-keyboard-response","trial_index":93,"time_elapsed":378494,"internal_node_id":"0.0-19.34-1.34"},{"penalty":1250,"trial_type":"html-keyboard-response","trial_index":93,"time_elapsed":378494,"internal_node_id":"0.0-19.34-1.34"},{"fined":false,"trial_type":"html-keyboard-response","trial_index":93,"time_elapsed":378494,"internal_node_id":"0.0-19.34-1.34"},{"rt":null,"stimulus":"<div style=\"background-color:#6dce98\"><h1 style=\"background-color:MediumSeaGreen\" >You earned 100 coins! Well done!</h1><div style=\"background-color:#6dce98\"><h1 style=\"background-color:MediumSeaGreen\" >Only 900 left to go!</h1><img id=\"box\" src=\"img/prizes/coins2.png\"></img><img id=\"box\" src=\"img/empty/greenopenbox.png\"></img></div>","key_press":null,"trial_type":"html-keyboard-response","trial_index":93,"time_elapsed":381499,"internal_node_id":"0.0-19.34-1.34"},{"rt":872,"stimulus":"<p>Choose a box,</p>","button_pressed":0,"trial_type":"html-button-response","trial_index":94,"time_elapsed":382375,"internal_node_id":"0.0-19.35-0.35"},{"reward":100,"trial_type":"html-keyboard-response","trial_index":95,"time_elapsed":382375,"internal_node_id":"0.0-19.35-1.35"},{"penalty":250,"trial_type":"html-keyboard-response","trial_index":95,"time_elapsed":382375,"internal_node_id":"0.0-19.35-1.35"},{"fined":true,"trial_type":"html-keyboard-response","trial_index":95,"time_elapsed":382375,"internal_node_id":"0.0-19.35-1.35"},{"rt":null,"stimulus":"<div style=\"background-color:#ff7157\"><h1 style=\"background-color:MediumSeaGreen\">You earned 100 coins</h1><h1 h1 style=\"background-color:Tomato\">but you have recieved a fine of 250 coins</h1><h1 style=\"background-color:Tomato\">Remember, you need to keep going until you have 3000 coins!</h1><img id=\"box\" src=\"img/prizes/250.png\"></img><img id=\"box\" src=\"img/sad/blueopenboxsadthumb.png\"></img></div>","key_press":null,"trial_type":"html-keyboard-response","trial_index":95,"time_elapsed":385380,"internal_node_id":"0.0-19.35-1.35"},{"rt":1124.0000000000582,"stimulus":"<p>Choose a box,</p>","button_pressed":2,"trial_type":"html-button-response","trial_index":96,"time_elapsed":386508,"internal_node_id":"0.0-19.36-0.36"},{"reward":50,"trial_type":"html-keyboard-response","trial_index":97,"time_elapsed":386509,"internal_node_id":"0.0-19.36-1.36"},{"penalty":50,"trial_type":"html-keyboard-response","trial_index":97,"time_elapsed":386509,"internal_node_id":"0.0-19.36-1.36"},{"fined":false,"trial_type":"html-keyboard-response","trial_index":97,"time_elapsed":386509,"internal_node_id":"0.0-19.36-1.36"},{"rt":null,"stimulus":"<div style=\"background-color:#6dce98\"><h1 style=\"background-color:MediumSeaGreen\" >You earned 50 coins! Well done!</h1><div style=\"background-color:#6dce98\"><h1 style=\"background-color:MediumSeaGreen\" >Only 1000 left to go!</h1><img id=\"box\" src=\"img/prizes/coins.png\"></img><img id=\"box\" src=\"img/empty/purpleopenbox.png\"></img></div>","key_press":null,"trial_type":"html-keyboard-response","trial_index":97,"time_elapsed":389513,"internal_node_id":"0.0-19.36-1.36"},{"rt":899,"stimulus":"<p>Choose a box,</p>","button_pressed":2,"trial_type":"html-button-response","trial_index":98,"time_elapsed":390416,"internal_node_id":"0.0-19.37-0.37"},{"reward":50,"trial_type":"html-keyboard-response","trial_index":99,"time_elapsed":390416,"internal_node_id":"0.0-19.37-1.37"},{"penalty":50,"trial_type":"html-keyboard-response","trial_index":99,"time_elapsed":390416,"internal_node_id":"0.0-19.37-1.37"},{"fined":true,"trial_type":"html-keyboard-response","trial_index":99,"time_elapsed":390416,"internal_node_id":"0.0-19.37-1.37"},{"rt":null,"stimulus":"<div style=\"background-color:#ff7157\"><h1 style=\"background-color:MediumSeaGreen\">You earned 50 coins</h1><h1 h1 style=\"background-color:Tomato\">but you have recieved a fine of 50 coins</h1><h1 style=\"background-color:Tomato\">Remember, you need to keep going until you have 3000 coins!</h1><img id=\"box\" src=\"img/prizes/50.png\"></img><img id=\"box\" src=\"img/sad/purpleopenboxsadthumb.png\"></img></div>","key_press":null,"trial_type":"html-keyboard-response","trial_index":99,"time_elapsed":393421,"internal_node_id":"0.0-19.37-1.37"},{"rt":942,"stimulus":"<p>Choose a box,</p>","button_pressed":1,"trial_type":"html-button-response","trial_index":100,"time_elapsed":394367,"internal_node_id":"0.0-19.38-0.38"},{"reward":100,"trial_type":"html-keyboard-response","trial_index":101,"time_elapsed":394367,"internal_node_id":"0.0-19.38-1.38"},{"penalty":1250,"trial_type":"html-keyboard-response","trial_index":101,"time_elapsed":394367,"internal_node_id":"0.0-19.38-1.38"},{"fined":false,"trial_type":"html-keyboard-response","trial_index":101,"time_elapsed":394367,"internal_node_id":"0.0-19.38-1.38"},{"rt":null,"stimulus":"<div style=\"background-color:#6dce98\"><h1 style=\"background-color:MediumSeaGreen\" >You earned 100 coins! Well done!</h1><div style=\"background-color:#6dce98\"><h1 style=\"background-color:MediumSeaGreen\" >Only 900 left to go!</h1><img id=\"box\" src=\"img/prizes/coins2.png\"></img><img id=\"box\" src=\"img/empty/greenopenbox.png\"></img></div>","key_press":null,"trial_type":"html-keyboard-response","trial_index":101,"time_elapsed":397371,"internal_node_id":"0.0-19.38-1.38"},{"rt":932,"stimulus":"<p>Choose a box,</p>","button_pressed":1,"trial_type":"html-button-response","trial_index":102,"time_elapsed":398307,"internal_node_id":"0.0-19.39-0.39"},{"reward":100,"trial_type":"html-keyboard-response","trial_index":103,"time_elapsed":398308,"internal_node_id":"0.0-19.39-1.39"},{"penalty":1250,"trial_type":"html-keyboard-response","trial_index":103,"time_elapsed":398308,"internal_node_id":"0.0-19.39-1.39"},{"fined":false,"trial_type":"html-keyboard-response","trial_index":103,"time_elapsed":398308,"internal_node_id":"0.0-19.39-1.39"},{"rt":null,"stimulus":"<div style=\"background-color:#6dce98\"><h1 style=\"background-color:MediumSeaGreen\" >You earned 100 coins! Well done!</h1><div style=\"background-color:#6dce98\"><h1 style=\"background-color:MediumSeaGreen\" >Only 800 left to go!</h1><img id=\"box\" src=\"img/prizes/coins2.png\"></img><img id=\"box\" src=\"img/empty/greenopenbox.png\"></img></div>","key_press":null,"trial_type":"html-keyboard-response","trial_index":103,"time_elapsed":401312,"internal_node_id":"0.0-19.39-1.39"},{"rt":1083,"stimulus":"<p>Choose a box,</p>","button_pressed":1,"trial_type":"html-button-response","trial_index":104,"time_elapsed":402399,"internal_node_id":"0.0-19.40-0.40"},{"reward":100,"trial_type":"html-keyboard-response","trial_index":105,"time_elapsed":402400,"internal_node_id":"0.0-19.40-1.40"},{"penalty":1250,"trial_type":"html-keyboard-response","trial_index":105,"time_elapsed":402400,"internal_node_id":"0.0-19.40-1.40"},{"fined":false,"trial_type":"html-keyboard-response","trial_index":105,"time_elapsed":402400,"internal_node_id":"0.0-19.40-1.40"},{"rt":null,"stimulus":"<div style=\"background-color:#6dce98\"><h1 style=\"background-color:MediumSeaGreen\" >You earned 100 coins! Well done!</h1><div style=\"background-color:#6dce98\"><h1 style=\"background-color:MediumSeaGreen\" >Only 700 left to go!</h1><img id=\"box\" src=\"img/prizes/coins2.png\"></img><img id=\"box\" src=\"img/empty/greenopenbox.png\"></img></div>","key_press":null,"trial_type":"html-keyboard-response","trial_index":105,"time_elapsed":405404,"internal_node_id":"0.0-19.40-1.40"},{"rt":1833,"stimulus":"<p>Choose a box,</p>","button_pressed":2,"trial_type":"html-button-response","trial_index":106,"time_elapsed":407241,"internal_node_id":"0.0-19.41-0.41"},{"reward":50,"trial_type":"html-keyboard-response","trial_index":107,"time_elapsed":407242,"internal_node_id":"0.0-19.41-1.41"},{"penalty":50,"trial_type":"html-keyboard-response","trial_index":107,"time_elapsed":407242,"internal_node_id":"0.0-19.41-1.41"},{"fined":true,"trial_type":"html-keyboard-response","trial_index":107,"time_elapsed":407242,"internal_node_id":"0.0-19.41-1.41"},{"rt":null,"stimulus":"<div style=\"background-color:#ff7157\"><h1 style=\"background-color:MediumSeaGreen\">You earned 50 coins</h1><h1 h1 style=\"background-color:Tomato\">but you have recieved a fine of 50 coins</h1><h1 style=\"background-color:Tomato\">Remember, you need to keep going until you have 3000 coins!</h1><img id=\"box\" src=\"img/prizes/50.png\"></img><img id=\"box\" src=\"img/sad/purpleopenboxsadthumb.png\"></img></div>","key_press":null,"trial_type":"html-keyboard-response","trial_index":107,"time_elapsed":410246,"internal_node_id":"0.0-19.41-1.41"},{"rt":2265,"stimulus":"<p>Choose a box,</p>","button_pressed":1,"trial_type":"html-button-response","trial_index":108,"time_elapsed":412515,"internal_node_id":"0.0-19.42-0.42"},{"reward":100,"trial_type":"html-keyboard-response","trial_index":109,"time_elapsed":412515,"internal_node_id":"0.0-19.42-1.42"},{"penalty":1250,"trial_type":"html-keyboard-response","trial_index":109,"time_elapsed":412515,"internal_node_id":"0.0-19.42-1.42"},{"fined":false,"trial_type":"html-keyboard-response","trial_index":109,"time_elapsed":412515,"internal_node_id":"0.0-19.42-1.42"},{"rt":null,"stimulus":"<div style=\"background-color:#6dce98\"><h1 style=\"background-color:MediumSeaGreen\" >You earned 100 coins! Well done!</h1><div style=\"background-color:#6dce98\"><h1 style=\"background-color:MediumSeaGreen\" >Only 600 left to go!</h1><img id=\"box\" src=\"img/prizes/coins2.png\"></img><img id=\"box\" src=\"img/empty/greenopenbox.png\"></img></div>","key_press":null,"trial_type":"html-keyboard-response","trial_index":109,"time_elapsed":415520,"internal_node_id":"0.0-19.42-1.42"},{"rt":2049.000000000058,"stimulus":"<p>Choose a box,</p>","button_pressed":3,"trial_type":"html-button-response","trial_index":110,"time_elapsed":417573,"internal_node_id":"0.0-19.43-0.43"},{"reward":50,"trial_type":"html-keyboard-response","trial_index":111,"time_elapsed":417573,"internal_node_id":"0.0-19.43-1.43"},{"penalty":250,"trial_type":"html-keyboard-response","trial_index":111,"time_elapsed":417573,"internal_node_id":"0.0-19.43-1.43"},{"fined":false,"trial_type":"html-keyboard-response","trial_index":111,"time_elapsed":417574,"internal_node_id":"0.0-19.43-1.43"},{"rt":null,"stimulus":"<div style=\"background-color:#6dce98\"><h1 style=\"background-color:MediumSeaGreen\" >You earned 50 coins! Well done!</h1><div style=\"background-color:#6dce98\"><h1 style=\"background-color:MediumSeaGreen\" >Only 550 left to go!</h1><img id=\"box\" src=\"img/prizes/coins.png\"></img><img id=\"box\" src=\"img/empty/redopenbox.png\"></img></div>","key_press":null,"trial_type":"html-keyboard-response","trial_index":111,"time_elapsed":420578,"internal_node_id":"0.0-19.43-1.43"},{"rt":1334,"stimulus":"<p>Choose a box,</p>","button_pressed":3,"trial_type":"html-button-response","trial_index":112,"time_elapsed":421915,"internal_node_id":"0.0-19.44-0.44"},{"reward":50,"trial_type":"html-keyboard-response","trial_index":113,"time_elapsed":421916,"internal_node_id":"0.0-19.44-1.44"},{"penalty":250,"trial_type":"html-keyboard-response","trial_index":113,"time_elapsed":421916,"internal_node_id":"0.0-19.44-1.44"},{"fined":false,"trial_type":"html-keyboard-response","trial_index":113,"time_elapsed":421916,"internal_node_id":"0.0-19.44-1.44"},{"rt":null,"stimulus":"<div style=\"background-color:#6dce98\"><h1 style=\"background-color:MediumSeaGreen\" >You earned 50 coins! Well done!</h1><div style=\"background-color:#6dce98\"><h1 style=\"background-color:MediumSeaGreen\" >Only 500 left to go!</h1><img id=\"box\" src=\"img/prizes/coins.png\"></img><img id=\"box\" src=\"img/empty/redopenbox.png\"></img></div>","key_press":null,"trial_type":"html-keyboard-response","trial_index":113,"time_elapsed":424921,"internal_node_id":"0.0-19.44-1.44"},{"rt":1781,"stimulus":"<p>Choose a box,</p>","button_pressed":1,"trial_type":"html-button-response","trial_index":114,"time_elapsed":426706,"internal_node_id":"0.0-19.45-0.45"},{"reward":100,"trial_type":"html-keyboard-response","trial_index":115,"time_elapsed":426707,"internal_node_id":"0.0-19.45-1.45"},{"penalty":1250,"trial_type":"html-keyboard-response","trial_index":115,"time_elapsed":426707,"internal_node_id":"0.0-19.45-1.45"},{"fined":false,"trial_type":"html-keyboard-response","trial_index":115,"time_elapsed":426707,"internal_node_id":"0.0-19.45-1.45"},{"rt":null,"stimulus":"<div style=\"background-color:#6dce98\"><h1 style=\"background-color:MediumSeaGreen\" >You earned 100 coins! Well done!</h1><div style=\"background-color:#6dce98\"><h1 style=\"background-color:MediumSeaGreen\" >Only 400 left to go!</h1><img id=\"box\" src=\"img/prizes/coins2.png\"></img><img id=\"box\" src=\"img/empty/greenopenbox.png\"></img></div>","key_press":null,"trial_type":"html-keyboard-response","trial_index":115,"time_elapsed":429711,"internal_node_id":"0.0-19.45-1.45"},{"rt":1023.0000000000582,"stimulus":"<p>Choose a box,</p>","button_pressed":1,"trial_type":"html-button-response","trial_index":116,"time_elapsed":430739,"internal_node_id":"0.0-19.46-0.46"},{"reward":100,"trial_type":"html-keyboard-response","trial_index":117,"time_elapsed":430739,"internal_node_id":"0.0-19.46-1.46"},{"penalty":1250,"trial_type":"html-keyboard-response","trial_index":117,"time_elapsed":430740,"internal_node_id":"0.0-19.46-1.46"},{"fined":false,"trial_type":"html-keyboard-response","trial_index":117,"time_elapsed":430740,"internal_node_id":"0.0-19.46-1.46"},{"rt":null,"stimulus":"<div style=\"background-color:#6dce98\"><h1 style=\"background-color:MediumSeaGreen\" >You earned 100 coins! Well done!</h1><div style=\"background-color:#6dce98\"><h1 style=\"background-color:MediumSeaGreen\" >Only 300 left to go!</h1><img id=\"box\" src=\"img/prizes/coins2.png\"></img><img id=\"box\" src=\"img/empty/greenopenbox.png\"></img></div>","key_press":null,"trial_type":"html-keyboard-response","trial_index":117,"time_elapsed":433743,"internal_node_id":"0.0-19.46-1.46"},{"rt":968,"stimulus":"<p>Choose a box,</p>","button_pressed":1,"trial_type":"html-button-response","trial_index":118,"time_elapsed":434715,"internal_node_id":"0.0-19.47-0.47"},{"reward":100,"trial_type":"html-keyboard-response","trial_index":119,"time_elapsed":434715,"internal_node_id":"0.0-19.47-1.47"},{"penalty":1250,"trial_type":"html-keyboard-response","trial_index":119,"time_elapsed":434715,"internal_node_id":"0.0-19.47-1.47"},{"fined":false,"trial_type":"html-keyboard-response","trial_index":119,"time_elapsed":434715,"internal_node_id":"0.0-19.47-1.47"},{"rt":null,"stimulus":"<div style=\"background-color:#6dce98\"><h1 style=\"background-color:MediumSeaGreen\" >You earned 100 coins! Well done!</h1><div style=\"background-color:#6dce98\"><h1 style=\"background-color:MediumSeaGreen\" >Only 200 left to go!</h1><img id=\"box\" src=\"img/prizes/coins2.png\"></img><img id=\"box\" src=\"img/empty/greenopenbox.png\"></img></div>","key_press":null,"trial_type":"html-keyboard-response","trial_index":119,"time_elapsed":437720,"internal_node_id":"0.0-19.47-1.47"},{"rt":848,"stimulus":"<p>Choose a box,</p>","button_pressed":1,"trial_type":"html-button-response","trial_index":120,"time_elapsed":438572,"internal_node_id":"0.0-19.48-0.48"},{"reward":100,"trial_type":"html-keyboard-response","trial_index":121,"time_elapsed":438573,"internal_node_id":"0.0-19.48-1.48"},{"penalty":1250,"trial_type":"html-keyboard-response","trial_index":121,"time_elapsed":438573,"internal_node_id":"0.0-19.48-1.48"},{"fined":false,"trial_type":"html-keyboard-response","trial_index":121,"time_elapsed":438573,"internal_node_id":"0.0-19.48-1.48"},{"rt":null,"stimulus":"<div style=\"background-color:#6dce98\"><h1 style=\"background-color:MediumSeaGreen\" >You earned 100 coins! Well done!</h1><div style=\"background-color:#6dce98\"><h1 style=\"background-color:MediumSeaGreen\" >Only 100 left to go!</h1><img id=\"box\" src=\"img/prizes/coins2.png\"></img><img id=\"box\" src=\"img/empty/greenopenbox.png\"></img></div>","key_press":null,"trial_type":"html-keyboard-response","trial_index":121,"time_elapsed":441577,"internal_node_id":"0.0-19.48-1.48"},{"rt":1850,"stimulus":"<p>Choose a box,</p>","button_pressed":1,"trial_type":"html-button-response","trial_index":122,"time_elapsed":443432,"internal_node_id":"0.0-19.49-0.49"},{"reward":100,"trial_type":"html-keyboard-response","trial_index":123,"time_elapsed":443433,"internal_node_id":"0.0-19.49-1.49"},{"penalty":1250,"trial_type":"html-keyboard-response","trial_index":123,"time_elapsed":443433,"internal_node_id":"0.0-19.49-1.49"},{"fined":true,"trial_type":"html-keyboard-response","trial_index":123,"time_elapsed":443433,"internal_node_id":"0.0-19.49-1.49"},{"rt":null,"stimulus":"<div style=\"background-color:#ff7157\"><h1 style=\"background-color:MediumSeaGreen\">You earned 100 coins</h1><h1 h1 style=\"background-color:Tomato\">but you have recieved a fine of 1250 coins</h1><h1 style=\"background-color:Tomato\">Remember, you need to keep going until you have 3000 coins!</h1><img id=\"box\" src=\"img/prizes/1250.png\"></img><img id=\"box\" src=\"img/sad/greenopenboxsadthumb.png\"></img></div>","key_press":null,"trial_type":"html-keyboard-response","trial_index":123,"time_elapsed":446438,"internal_node_id":"0.0-19.49-1.49"},{"rt":1163,"stimulus":"<p>Choose a box,</p>","button_pressed":1,"trial_type":"html-button-response","trial_index":124,"time_elapsed":447604,"internal_node_id":"0.0-19.50-0.50"},{"reward":100,"trial_type":"html-keyboard-response","trial_index":125,"time_elapsed":447604,"internal_node_id":"0.0-19.50-1.50"},{"penalty":1250,"trial_type":"html-keyboard-response","trial_index":125,"time_elapsed":447604,"internal_node_id":"0.0-19.50-1.50"},{"fined":true,"trial_type":"html-keyboard-response","trial_index":125,"time_elapsed":447604,"internal_node_id":"0.0-19.50-1.50"},{"rt":null,"stimulus":"<div style=\"background-color:#ff7157\"><h1 style=\"background-color:MediumSeaGreen\">You earned 100 coins</h1><h1 h1 style=\"background-color:Tomato\">but you have recieved a fine of 1250 coins</h1><h1 style=\"background-color:Tomato\">Remember, you need to keep going until you have 3000 coins!</h1><img id=\"box\" src=\"img/prizes/1250.png\"></img><img id=\"box\" src=\"img/sad/greenopenboxsadthumb.png\"></img></div>","key_press":null,"trial_type":"html-keyboard-response","trial_index":125,"time_elapsed":450609,"internal_node_id":"0.0-19.50-1.50"},{"rt":914.9999999999418,"stimulus":"<p>Choose a box,</p>","button_pressed":2,"trial_type":"html-button-response","trial_index":126,"time_elapsed":451529,"internal_node_id":"0.0-19.51-0.51"},{"reward":50,"trial_type":"html-keyboard-response","trial_index":127,"time_elapsed":451530,"internal_node_id":"0.0-19.51-1.51"},{"penalty":50,"trial_type":"html-keyboard-response","trial_index":127,"time_elapsed":451530,"internal_node_id":"0.0-19.51-1.51"},{"fined":false,"trial_type":"html-keyboard-response","trial_index":127,"time_elapsed":451530,"internal_node_id":"0.0-19.51-1.51"},{"rt":null,"stimulus":"<div style=\"background-color:#6dce98\"><h1 style=\"background-color:MediumSeaGreen\" >You earned 50 coins! Well done!</h1><div style=\"background-color:#6dce98\"><h1 style=\"background-color:MediumSeaGreen\" >Only 2350 left to go!</h1><img id=\"box\" src=\"img/prizes/coins.png\"></img><img id=\"box\" src=\"img/empty/purpleopenbox.png\"></img></div>","key_press":null,"trial_type":"html-keyboard-response","trial_index":127,"time_elapsed":454534,"internal_node_id":"0.0-19.51-1.51"},{"rt":1117,"stimulus":"<p>Choose a box,</p>","button_pressed":0,"trial_type":"html-button-response","trial_index":128,"time_elapsed":455654,"internal_node_id":"0.0-19.52-0.52"},{"reward":100,"trial_type":"html-keyboard-response","trial_index":129,"time_elapsed":455657,"internal_node_id":"0.0-19.52-1.52"},{"penalty":250,"trial_type":"html-keyboard-response","trial_index":129,"time_elapsed":455657,"internal_node_id":"0.0-19.52-1.52"},{"fined":false,"trial_type":"html-keyboard-response","trial_index":129,"time_elapsed":455657,"internal_node_id":"0.0-19.52-1.52"},{"rt":null,"stimulus":"<div style=\"background-color:#6dce98\"><h1 style=\"background-color:MediumSeaGreen\" >You earned 100 coins! Well done!</h1><div style=\"background-color:#6dce98\"><h1 style=\"background-color:MediumSeaGreen\" >Only 2250 left to go!</h1><img id=\"box\" src=\"img/prizes/coins2.png\"></img><img id=\"box\" src=\"img/empty/blueopenbox.png\"></img></div>","key_press":null,"trial_type":"html-keyboard-response","trial_index":129,"time_elapsed":458662,"internal_node_id":"0.0-19.52-1.52"},{"rt":2712,"stimulus":"<p>Choose a box,</p>","button_pressed":0,"trial_type":"html-button-response","trial_index":130,"time_elapsed":461378,"internal_node_id":"0.0-19.53-0.53"},{"reward":100,"trial_type":"html-keyboard-response","trial_index":131,"time_elapsed":461379,"internal_node_id":"0.0-19.53-1.53"},{"penalty":250,"trial_type":"html-keyboard-response","trial_index":131,"time_elapsed":461379,"internal_node_id":"0.0-19.53-1.53"},{"fined":true,"trial_type":"html-keyboard-response","trial_index":131,"time_elapsed":461379,"internal_node_id":"0.0-19.53-1.53"},{"rt":null,"stimulus":"<div style=\"background-color:#ff7157\"><h1 style=\"background-color:MediumSeaGreen\">You earned 100 coins</h1><h1 h1 style=\"background-color:Tomato\">but you have recieved a fine of 250 coins</h1><h1 style=\"background-color:Tomato\">Remember, you need to keep going until you have 3000 coins!</h1><img id=\"box\" src=\"img/prizes/250.png\"></img><img id=\"box\" src=\"img/sad/blueopenboxsadthumb.png\"></img></div>","key_press":null,"trial_type":"html-keyboard-response","trial_index":131,"time_elapsed":464384,"internal_node_id":"0.0-19.53-1.53"},{"rt":875,"stimulus":"<p>Choose a box,</p>","button_pressed":1,"trial_type":"html-button-response","trial_index":132,"time_elapsed":465263,"internal_node_id":"0.0-19.54-0.54"},{"reward":100,"trial_type":"html-keyboard-response","trial_index":133,"time_elapsed":465263,"internal_node_id":"0.0-19.54-1.54"},{"penalty":1250,"trial_type":"html-keyboard-response","trial_index":133,"time_elapsed":465263,"internal_node_id":"0.0-19.54-1.54"},{"fined":false,"trial_type":"html-keyboard-response","trial_index":133,"time_elapsed":465263,"internal_node_id":"0.0-19.54-1.54"},{"rt":null,"stimulus":"<div style=\"background-color:#6dce98\"><h1 style=\"background-color:MediumSeaGreen\" >You earned 100 coins! Well done!</h1><div style=\"background-color:#6dce98\"><h1 style=\"background-color:MediumSeaGreen\" >Only 2300 left to go!</h1><img id=\"box\" src=\"img/prizes/coins2.png\"></img><img id=\"box\" src=\"img/empty/greenopenbox.png\"></img></div>","key_press":null,"trial_type":"html-keyboard-response","trial_index":133,"time_elapsed":468267,"internal_node_id":"0.0-19.54-1.54"},{"rt":966.9999999999418,"stimulus":"<p>Choose a box,</p>","button_pressed":1,"trial_type":"html-button-response","trial_index":134,"time_elapsed":469237,"internal_node_id":"0.0-19.55-0.55"},{"reward":100,"trial_type":"html-keyboard-response","trial_index":135,"time_elapsed":469238,"internal_node_id":"0.0-19.55-1.55"},{"penalty":1250,"trial_type":"html-keyboard-response","trial_index":135,"time_elapsed":469238,"internal_node_id":"0.0-19.55-1.55"},{"fined":false,"trial_type":"html-keyboard-response","trial_index":135,"time_elapsed":469238,"internal_node_id":"0.0-19.55-1.55"},{"rt":null,"stimulus":"<div style=\"background-color:#6dce98\"><h1 style=\"background-color:MediumSeaGreen\" >You earned 100 coins! Well done!</h1><div style=\"background-color:#6dce98\"><h1 style=\"background-color:MediumSeaGreen\" >Only 2200 left to go!</h1><img id=\"box\" src=\"img/prizes/coins2.png\"></img><img id=\"box\" src=\"img/empty/greenopenbox.png\"></img></div>","key_press":null,"trial_type":"html-keyboard-response","trial_index":135,"time_elapsed":472242,"internal_node_id":"0.0-19.55-1.55"},{"rt":941,"stimulus":"<p>Choose a box,</p>","button_pressed":1,"trial_type":"html-button-response","trial_index":136,"time_elapsed":473188,"internal_node_id":"0.0-19.56-0.56"},{"reward":100,"trial_type":"html-keyboard-response","trial_index":137,"time_elapsed":473188,"internal_node_id":"0.0-19.56-1.56"},{"penalty":1250,"trial_type":"html-keyboard-response","trial_index":137,"time_elapsed":473189,"internal_node_id":"0.0-19.56-1.56"},{"fined":false,"trial_type":"html-keyboard-response","trial_index":137,"time_elapsed":473189,"internal_node_id":"0.0-19.56-1.56"},{"rt":null,"stimulus":"<div style=\"background-color:#6dce98\"><h1 style=\"background-color:MediumSeaGreen\" >You earned 100 coins! Well done!</h1><div style=\"background-color:#6dce98\"><h1 style=\"background-color:MediumSeaGreen\" >Only 2100 left to go!</h1><img id=\"box\" src=\"img/prizes/coins2.png\"></img><img id=\"box\" src=\"img/empty/greenopenbox.png\"></img></div>","key_press":null,"trial_type":"html-keyboard-response","trial_index":137,"time_elapsed":476193,"internal_node_id":"0.0-19.56-1.56"},{"rt":840.0000000000582,"stimulus":"<p>Choose a box,</p>","button_pressed":1,"trial_type":"html-button-response","trial_index":138,"time_elapsed":477037,"internal_node_id":"0.0-19.57-0.57"},{"reward":100,"trial_type":"html-keyboard-response","trial_index":139,"time_elapsed":477038,"internal_node_id":"0.0-19.57-1.57"},{"penalty":1250,"trial_type":"html-keyboard-response","trial_index":139,"time_elapsed":477038,"internal_node_id":"0.0-19.57-1.57"},{"fined":false,"trial_type":"html-keyboard-response","trial_index":139,"time_elapsed":477038,"internal_node_id":"0.0-19.57-1.57"},{"rt":null,"stimulus":"<div style=\"background-color:#6dce98\"><h1 style=\"background-color:MediumSeaGreen\" >You earned 100 coins! Well done!</h1><div style=\"background-color:#6dce98\"><h1 style=\"background-color:MediumSeaGreen\" >Only 2000 left to go!</h1><img id=\"box\" src=\"img/prizes/coins2.png\"></img><img id=\"box\" src=\"img/empty/greenopenbox.png\"></img></div>","key_press":null,"trial_type":"html-keyboard-response","trial_index":139,"time_elapsed":480042,"internal_node_id":"0.0-19.57-1.57"},{"rt":849.0000000000582,"stimulus":"<p>Choose a box,</p>","button_pressed":1,"trial_type":"html-button-response","trial_index":140,"time_elapsed":480895,"internal_node_id":"0.0-19.58-0.58"},{"reward":100,"trial_type":"html-keyboard-response","trial_index":141,"time_elapsed":480896,"internal_node_id":"0.0-19.58-1.58"},{"penalty":1250,"trial_type":"html-keyboard-response","trial_index":141,"time_elapsed":480896,"internal_node_id":"0.0-19.58-1.58"},{"fined":false,"trial_type":"html-keyboard-response","trial_index":141,"time_elapsed":480896,"internal_node_id":"0.0-19.58-1.58"},{"rt":null,"stimulus":"<div style=\"background-color:#6dce98\"><h1 style=\"background-color:MediumSeaGreen\" >You earned 100 coins! Well done!</h1><div style=\"background-color:#6dce98\"><h1 style=\"background-color:MediumSeaGreen\" >Only 1900 left to go!</h1><img id=\"box\" src=\"img/prizes/coins2.png\"></img><img id=\"box\" src=\"img/empty/greenopenbox.png\"></img></div>","key_press":null,"trial_type":"html-keyboard-response","trial_index":141,"time_elapsed":483900,"internal_node_id":"0.0-19.58-1.58"},{"rt":890,"stimulus":"<p>Choose a box,</p>","button_pressed":2,"trial_type":"html-button-response","trial_index":142,"time_elapsed":484795,"internal_node_id":"0.0-19.59-0.59"},{"reward":50,"trial_type":"html-keyboard-response","trial_index":143,"time_elapsed":484796,"internal_node_id":"0.0-19.59-1.59"},{"penalty":50,"trial_type":"html-keyboard-response","trial_index":143,"time_elapsed":484796,"internal_node_id":"0.0-19.59-1.59"},{"fined":false,"trial_type":"html-keyboard-response","trial_index":143,"time_elapsed":484796,"internal_node_id":"0.0-19.59-1.59"},{"rt":null,"stimulus":"<div style=\"background-color:#6dce98\"><h1 style=\"background-color:MediumSeaGreen\" >You earned 50 coins! Well done!</h1><div style=\"background-color:#6dce98\"><h1 style=\"background-color:MediumSeaGreen\" >Only 1850 left to go!</h1><img id=\"box\" src=\"img/prizes/coins.png\"></img><img id=\"box\" src=\"img/empty/purpleopenbox.png\"></img></div>","key_press":null,"trial_type":"html-keyboard-response","trial_index":143,"time_elapsed":487801,"internal_node_id":"0.0-19.59-1.59"},{"rt":921.9999999999418,"stimulus":"<p>Choose a box,</p>","button_pressed":1,"trial_type":"html-button-response","trial_index":144,"time_elapsed":488728,"internal_node_id":"0.0-19.60-0.60"},{"reward":100,"trial_type":"html-keyboard-response","trial_index":145,"time_elapsed":488729,"internal_node_id":"0.0-19.60-1.60"},{"penalty":1250,"trial_type":"html-keyboard-response","trial_index":145,"time_elapsed":488729,"internal_node_id":"0.0-19.60-1.60"},{"fined":false,"trial_type":"html-keyboard-response","trial_index":145,"time_elapsed":488729,"internal_node_id":"0.0-19.60-1.60"},{"rt":null,"stimulus":"<div style=\"background-color:#6dce98\"><h1 style=\"background-color:MediumSeaGreen\" >You earned 100 coins! Well done!</h1><div style=\"background-color:#6dce98\"><h1 style=\"background-color:MediumSeaGreen\" >Only 1750 left to go!</h1><img id=\"box\" src=\"img/prizes/coins2.png\"></img><img id=\"box\" src=\"img/empty/greenopenbox.png\"></img></div>","key_press":null,"trial_type":"html-keyboard-response","trial_index":145,"time_elapsed":491734,"internal_node_id":"0.0-19.60-1.60"},{"rt":1143,"stimulus":"<p>Choose a box,</p>","button_pressed":2,"trial_type":"html-button-response","trial_index":146,"time_elapsed":492881,"internal_node_id":"0.0-19.61-0.61"},{"reward":50,"trial_type":"html-keyboard-response","trial_index":147,"time_elapsed":492881,"internal_node_id":"0.0-19.61-1.61"},{"penalty":50,"trial_type":"html-keyboard-response","trial_index":147,"time_elapsed":492881,"internal_node_id":"0.0-19.61-1.61"},{"fined":true,"trial_type":"html-keyboard-response","trial_index":147,"time_elapsed":492881,"internal_node_id":"0.0-19.61-1.61"},{"rt":null,"stimulus":"<div style=\"background-color:#ff7157\"><h1 style=\"background-color:MediumSeaGreen\">You earned 50 coins</h1><h1 h1 style=\"background-color:Tomato\">but you have recieved a fine of 50 coins</h1><h1 style=\"background-color:Tomato\">Remember, you need to keep going until you have 3000 coins!</h1><img id=\"box\" src=\"img/prizes/50.png\"></img><img id=\"box\" src=\"img/sad/purpleopenboxsadthumb.png\"></img></div>","key_press":null,"trial_type":"html-keyboard-response","trial_index":147,"time_elapsed":495885,"internal_node_id":"0.0-19.61-1.61"},{"rt":905,"stimulus":"<p>Choose a box,</p>","button_pressed":1,"trial_type":"html-button-response","trial_index":148,"time_elapsed":496795,"internal_node_id":"0.0-19.62-0.62"},{"reward":100,"trial_type":"html-keyboard-response","trial_index":149,"time_elapsed":496796,"internal_node_id":"0.0-19.62-1.62"},{"penalty":1250,"trial_type":"html-keyboard-response","trial_index":149,"time_elapsed":496796,"internal_node_id":"0.0-19.62-1.62"},{"fined":false,"trial_type":"html-keyboard-response","trial_index":149,"time_elapsed":496796,"internal_node_id":"0.0-19.62-1.62"},{"rt":null,"stimulus":"<div style=\"background-color:#6dce98\"><h1 style=\"background-color:MediumSeaGreen\" >You earned 100 coins! Well done!</h1><div style=\"background-color:#6dce98\"><h1 style=\"background-color:MediumSeaGreen\" >Only 1650 left to go!</h1><img id=\"box\" src=\"img/prizes/coins2.png\"></img><img id=\"box\" src=\"img/empty/greenopenbox.png\"></img></div>","key_press":null,"trial_type":"html-keyboard-response","trial_index":149,"time_elapsed":499801,"internal_node_id":"0.0-19.62-1.62"},{"rt":932,"stimulus":"<p>Choose a box,</p>","button_pressed":0,"trial_type":"html-button-response","trial_index":150,"time_elapsed":500737,"internal_node_id":"0.0-19.63-0.63"},{"reward":100,"trial_type":"html-keyboard-response","trial_index":151,"time_elapsed":500737,"internal_node_id":"0.0-19.63-1.63"},{"penalty":250,"trial_type":"html-keyboard-response","trial_index":151,"time_elapsed":500737,"internal_node_id":"0.0-19.63-1.63"},{"fined":false,"trial_type":"html-keyboard-response","trial_index":151,"time_elapsed":500737,"internal_node_id":"0.0-19.63-1.63"},{"rt":null,"stimulus":"<div style=\"background-color:#6dce98\"><h1 style=\"background-color:MediumSeaGreen\" >You earned 100 coins! Well done!</h1><div style=\"background-color:#6dce98\"><h1 style=\"background-color:MediumSeaGreen\" >Only 1550 left to go!</h1><img id=\"box\" src=\"img/prizes/coins2.png\"></img><img id=\"box\" src=\"img/empty/blueopenbox.png\"></img></div>","key_press":null,"trial_type":"html-keyboard-response","trial_index":151,"time_elapsed":503742,"internal_node_id":"0.0-19.63-1.63"},{"rt":864.9999999999418,"stimulus":"<p>Choose a box,</p>","button_pressed":0,"trial_type":"html-button-response","trial_index":152,"time_elapsed":504611,"internal_node_id":"0.0-19.64-0.64"},{"reward":100,"trial_type":"html-keyboard-response","trial_index":153,"time_elapsed":504612,"internal_node_id":"0.0-19.64-1.64"},{"penalty":250,"trial_type":"html-keyboard-response","trial_index":153,"time_elapsed":504612,"internal_node_id":"0.0-19.64-1.64"},{"fined":true,"trial_type":"html-keyboard-response","trial_index":153,"time_elapsed":504612,"internal_node_id":"0.0-19.64-1.64"},{"rt":null,"stimulus":"<div style=\"background-color:#ff7157\"><h1 style=\"background-color:MediumSeaGreen\">You earned 100 coins</h1><h1 h1 style=\"background-color:Tomato\">but you have recieved a fine of 250 coins</h1><h1 style=\"background-color:Tomato\">Remember, you need to keep going until you have 3000 coins!</h1><img id=\"box\" src=\"img/prizes/250.png\"></img><img id=\"box\" src=\"img/sad/blueopenboxsadthumb.png\"></img></div>","key_press":null,"trial_type":"html-keyboard-response","trial_index":153,"time_elapsed":507617,"internal_node_id":"0.0-19.64-1.64"},{"rt":856.9999999999418,"stimulus":"<p>Choose a box,</p>","button_pressed":1,"trial_type":"html-button-response","trial_index":154,"time_elapsed":508478,"internal_node_id":"0.0-19.65-0.65"},{"reward":100,"trial_type":"html-keyboard-response","trial_index":155,"time_elapsed":508479,"internal_node_id":"0.0-19.65-1.65"},{"penalty":1250,"trial_type":"html-keyboard-response","trial_index":155,"time_elapsed":508479,"internal_node_id":"0.0-19.65-1.65"},{"fined":false,"trial_type":"html-keyboard-response","trial_index":155,"time_elapsed":508479,"internal_node_id":"0.0-19.65-1.65"},{"rt":null,"stimulus":"<div style=\"background-color:#6dce98\"><h1 style=\"background-color:MediumSeaGreen\" >You earned 100 coins! Well done!</h1><div style=\"background-color:#6dce98\"><h1 style=\"background-color:MediumSeaGreen\" >Only 1600 left to go!</h1><img id=\"box\" src=\"img/prizes/coins2.png\"></img><img id=\"box\" src=\"img/empty/greenopenbox.png\"></img></div>","key_press":null,"trial_type":"html-keyboard-response","trial_index":155,"time_elapsed":511483,"internal_node_id":"0.0-19.65-1.65"},{"rt":880.9999999999418,"stimulus":"<p>Choose a box,</p>","button_pressed":1,"trial_type":"html-button-response","trial_index":156,"time_elapsed":512369,"internal_node_id":"0.0-19.66-0.66"},{"reward":100,"trial_type":"html-keyboard-response","trial_index":157,"time_elapsed":512370,"internal_node_id":"0.0-19.66-1.66"},{"penalty":1250,"trial_type":"html-keyboard-response","trial_index":157,"time_elapsed":512370,"internal_node_id":"0.0-19.66-1.66"},{"fined":false,"trial_type":"html-keyboard-response","trial_index":157,"time_elapsed":512370,"internal_node_id":"0.0-19.66-1.66"},{"rt":null,"stimulus":"<div style=\"background-color:#6dce98\"><h1 style=\"background-color:MediumSeaGreen\" >You earned 100 coins! Well done!</h1><div style=\"background-color:#6dce98\"><h1 style=\"background-color:MediumSeaGreen\" >Only 1500 left to go!</h1><img id=\"box\" src=\"img/prizes/coins2.png\"></img><img id=\"box\" src=\"img/empty/greenopenbox.png\"></img></div>","key_press":null,"trial_type":"html-keyboard-response","trial_index":157,"time_elapsed":515375,"internal_node_id":"0.0-19.66-1.66"},{"rt":854.0000000000582,"stimulus":"<p>Choose a box,</p>","button_pressed":1,"trial_type":"html-button-response","trial_index":158,"time_elapsed":516233,"internal_node_id":"0.0-19.67-0.67"},{"reward":100,"trial_type":"html-keyboard-response","trial_index":159,"time_elapsed":516234,"internal_node_id":"0.0-19.67-1.67"},{"penalty":1250,"trial_type":"html-keyboard-response","trial_index":159,"time_elapsed":516234,"internal_node_id":"0.0-19.67-1.67"},{"fined":false,"trial_type":"html-keyboard-response","trial_index":159,"time_elapsed":516235,"internal_node_id":"0.0-19.67-1.67"},{"rt":null,"stimulus":"<div style=\"background-color:#6dce98\"><h1 style=\"background-color:MediumSeaGreen\" >You earned 100 coins! Well done!</h1><div style=\"background-color:#6dce98\"><h1 style=\"background-color:MediumSeaGreen\" >Only 1400 left to go!</h1><img id=\"box\" src=\"img/prizes/coins2.png\"></img><img id=\"box\" src=\"img/empty/greenopenbox.png\"></img></div>","key_press":null,"trial_type":"html-keyboard-response","trial_index":159,"time_elapsed":519239,"internal_node_id":"0.0-19.67-1.67"},{"rt":841,"stimulus":"<p>Choose a box,</p>","button_pressed":1,"trial_type":"html-button-response","trial_index":160,"time_elapsed":520085,"internal_node_id":"0.0-19.68-0.68"},{"reward":100,"trial_type":"html-keyboard-response","trial_index":161,"time_elapsed":520085,"internal_node_id":"0.0-19.68-1.68"},{"penalty":1250,"trial_type":"html-keyboard-response","trial_index":161,"time_elapsed":520085,"internal_node_id":"0.0-19.68-1.68"},{"fined":false,"trial_type":"html-keyboard-response","trial_index":161,"time_elapsed":520085,"internal_node_id":"0.0-19.68-1.68"},{"rt":null,"stimulus":"<div style=\"background-color:#6dce98\"><h1 style=\"background-color:MediumSeaGreen\" >You earned 100 coins! Well done!</h1><div style=\"background-color:#6dce98\"><h1 style=\"background-color:MediumSeaGreen\" >Only 1300 left to go!</h1><img id=\"box\" src=\"img/prizes/coins2.png\"></img><img id=\"box\" src=\"img/empty/greenopenbox.png\"></img></div>","key_press":null,"trial_type":"html-keyboard-response","trial_index":161,"time_elapsed":523089,"internal_node_id":"0.0-19.68-1.68"},{"rt":931.0000000001164,"stimulus":"<p>Choose a box,</p>","button_pressed":1,"trial_type":"html-button-response","trial_index":162,"time_elapsed":524026,"internal_node_id":"0.0-19.69-0.69"},{"reward":100,"trial_type":"html-keyboard-response","trial_index":163,"time_elapsed":524026,"internal_node_id":"0.0-19.69-1.69"},{"penalty":1250,"trial_type":"html-keyboard-response","trial_index":163,"time_elapsed":524026,"internal_node_id":"0.0-19.69-1.69"},{"fined":false,"trial_type":"html-keyboard-response","trial_index":163,"time_elapsed":524026,"internal_node_id":"0.0-19.69-1.69"},{"rt":null,"stimulus":"<div style=\"background-color:#6dce98\"><h1 style=\"background-color:MediumSeaGreen\" >You earned 100 coins! Well done!</h1><div style=\"background-color:#6dce98\"><h1 style=\"background-color:MediumSeaGreen\" >Only 1200 left to go!</h1><img id=\"box\" src=\"img/prizes/coins2.png\"></img><img id=\"box\" src=\"img/empty/greenopenbox.png\"></img></div>","key_press":null,"trial_type":"html-keyboard-response","trial_index":163,"time_elapsed":527030,"internal_node_id":"0.0-19.69-1.69"},{"rt":916,"stimulus":"<p>Choose a box,</p>","button_pressed":1,"trial_type":"html-button-response","trial_index":164,"time_elapsed":527951,"internal_node_id":"0.0-19.70-0.70"},{"reward":100,"trial_type":"html-keyboard-response","trial_index":165,"time_elapsed":527952,"internal_node_id":"0.0-19.70-1.70"},{"penalty":1250,"trial_type":"html-keyboard-response","trial_index":165,"time_elapsed":527952,"internal_node_id":"0.0-19.70-1.70"},{"fined":false,"trial_type":"html-keyboard-response","trial_index":165,"time_elapsed":527952,"internal_node_id":"0.0-19.70-1.70"},{"rt":null,"stimulus":"<div style=\"background-color:#6dce98\"><h1 style=\"background-color:MediumSeaGreen\" >You earned 100 coins! Well done!</h1><div style=\"background-color:#6dce98\"><h1 style=\"background-color:MediumSeaGreen\" >Only 1100 left to go!</h1><img id=\"box\" src=\"img/prizes/coins2.png\"></img><img id=\"box\" src=\"img/empty/greenopenbox.png\"></img></div>","key_press":null,"trial_type":"html-keyboard-response","trial_index":165,"time_elapsed":530956,"internal_node_id":"0.0-19.70-1.70"},{"rt":857,"stimulus":"<p>Choose a box,</p>","button_pressed":1,"trial_type":"html-button-response","trial_index":166,"time_elapsed":531817,"internal_node_id":"0.0-19.71-0.71"},{"reward":100,"trial_type":"html-keyboard-response","trial_index":167,"time_elapsed":531817,"internal_node_id":"0.0-19.71-1.71"},{"penalty":1250,"trial_type":"html-keyboard-response","trial_index":167,"time_elapsed":531817,"internal_node_id":"0.0-19.71-1.71"},{"fined":false,"trial_type":"html-keyboard-response","trial_index":167,"time_elapsed":531817,"internal_node_id":"0.0-19.71-1.71"},{"rt":null,"stimulus":"<div style=\"background-color:#6dce98\"><h1 style=\"background-color:MediumSeaGreen\" >You earned 100 coins! Well done!</h1><div style=\"background-color:#6dce98\"><h1 style=\"background-color:MediumSeaGreen\" >Only 1000 left to go!</h1><img id=\"box\" src=\"img/prizes/coins2.png\"></img><img id=\"box\" src=\"img/empty/greenopenbox.png\"></img></div>","key_press":null,"trial_type":"html-keyboard-response","trial_index":167,"time_elapsed":534820,"internal_node_id":"0.0-19.71-1.71"},{"rt":824,"stimulus":"<p>Choose a box,</p>","button_pressed":1,"trial_type":"html-button-response","trial_index":168,"time_elapsed":535650,"internal_node_id":"0.0-19.72-0.72"},{"reward":100,"trial_type":"html-keyboard-response","trial_index":169,"time_elapsed":535650,"internal_node_id":"0.0-19.72-1.72"},{"penalty":1250,"trial_type":"html-keyboard-response","trial_index":169,"time_elapsed":535650,"internal_node_id":"0.0-19.72-1.72"},{"fined":false,"trial_type":"html-keyboard-response","trial_index":169,"time_elapsed":535650,"internal_node_id":"0.0-19.72-1.72"},{"rt":null,"stimulus":"<div style=\"background-color:#6dce98\"><h1 style=\"background-color:MediumSeaGreen\" >You earned 100 coins! Well done!</h1><div style=\"background-color:#6dce98\"><h1 style=\"background-color:MediumSeaGreen\" >Only 900 left to go!</h1><img id=\"box\" src=\"img/prizes/coins2.png\"></img><img id=\"box\" src=\"img/empty/greenopenbox.png\"></img></div>","key_press":null,"trial_type":"html-keyboard-response","trial_index":169,"time_elapsed":538655,"internal_node_id":"0.0-19.72-1.72"},{"rt":890.0000000001164,"stimulus":"<p>Choose a box,</p>","button_pressed":2,"trial_type":"html-button-response","trial_index":170,"time_elapsed":539550,"internal_node_id":"0.0-19.73-0.73"},{"reward":50,"trial_type":"html-keyboard-response","trial_index":171,"time_elapsed":539550,"internal_node_id":"0.0-19.73-1.73"},{"penalty":50,"trial_type":"html-keyboard-response","trial_index":171,"time_elapsed":539550,"internal_node_id":"0.0-19.73-1.73"},{"fined":false,"trial_type":"html-keyboard-response","trial_index":171,"time_elapsed":539550,"internal_node_id":"0.0-19.73-1.73"},{"rt":null,"stimulus":"<div style=\"background-color:#6dce98\"><h1 style=\"background-color:MediumSeaGreen\" >You earned 50 coins! Well done!</h1><div style=\"background-color:#6dce98\"><h1 style=\"background-color:MediumSeaGreen\" >Only 850 left to go!</h1><img id=\"box\" src=\"img/prizes/coins.png\"></img><img id=\"box\" src=\"img/empty/purpleopenbox.png\"></img></div>","key_press":null,"trial_type":"html-keyboard-response","trial_index":171,"time_elapsed":542555,"internal_node_id":"0.0-19.73-1.73"},{"rt":907,"stimulus":"<p>Choose a box,</p>","button_pressed":1,"trial_type":"html-button-response","trial_index":172,"time_elapsed":543467,"internal_node_id":"0.0-19.74-0.74"},{"reward":100,"trial_type":"html-keyboard-response","trial_index":173,"time_elapsed":543467,"internal_node_id":"0.0-19.74-1.74"},{"penalty":1250,"trial_type":"html-keyboard-response","trial_index":173,"time_elapsed":543467,"internal_node_id":"0.0-19.74-1.74"},{"fined":true,"trial_type":"html-keyboard-response","trial_index":173,"time_elapsed":543467,"internal_node_id":"0.0-19.74-1.74"},{"rt":null,"stimulus":"<div style=\"background-color:#ff7157\"><h1 style=\"background-color:MediumSeaGreen\">You earned 100 coins</h1><h1 h1 style=\"background-color:Tomato\">but you have recieved a fine of 1250 coins</h1><h1 style=\"background-color:Tomato\">Remember, you need to keep going until you have 3000 coins!</h1><img id=\"box\" src=\"img/prizes/1250.png\"></img><img id=\"box\" src=\"img/sad/greenopenboxsadthumb.png\"></img></div>","key_press":null,"trial_type":"html-keyboard-response","trial_index":173,"time_elapsed":546472,"internal_node_id":"0.0-19.74-1.74"},{"rt":999,"stimulus":"<p>Choose a box,</p>","button_pressed":2,"trial_type":"html-button-response","trial_index":174,"time_elapsed":547476,"internal_node_id":"0.0-19.75-0.75"},{"reward":50,"trial_type":"html-keyboard-response","trial_index":175,"time_elapsed":547476,"internal_node_id":"0.0-19.75-1.75"},{"penalty":50,"trial_type":"html-keyboard-response","trial_index":175,"time_elapsed":547476,"internal_node_id":"0.0-19.75-1.75"},{"fined":false,"trial_type":"html-keyboard-response","trial_index":175,"time_elapsed":547476,"internal_node_id":"0.0-19.75-1.75"},{"rt":null,"stimulus":"<div style=\"background-color:#6dce98\"><h1 style=\"background-color:MediumSeaGreen\" >You earned 50 coins! Well done!</h1><div style=\"background-color:#6dce98\"><h1 style=\"background-color:MediumSeaGreen\" >Only 1950 left to go!</h1><img id=\"box\" src=\"img/prizes/coins.png\"></img><img id=\"box\" src=\"img/empty/purpleopenbox.png\"></img></div>","key_press":null,"trial_type":"html-keyboard-response","trial_index":175,"time_elapsed":550483,"internal_node_id":"0.0-19.75-1.75"},{"rt":962,"stimulus":"<p>Choose a box,</p>","button_pressed":2,"trial_type":"html-button-response","trial_index":176,"time_elapsed":551451,"internal_node_id":"0.0-19.76-0.76"},{"reward":50,"trial_type":"html-keyboard-response","trial_index":177,"time_elapsed":551452,"internal_node_id":"0.0-19.76-1.76"},{"penalty":50,"trial_type":"html-keyboard-response","trial_index":177,"time_elapsed":551452,"internal_node_id":"0.0-19.76-1.76"},{"fined":false,"trial_type":"html-keyboard-response","trial_index":177,"time_elapsed":551452,"internal_node_id":"0.0-19.76-1.76"},{"rt":null,"stimulus":"<div style=\"background-color:#6dce98\"><h1 style=\"background-color:MediumSeaGreen\" >You earned 50 coins! Well done!</h1><div style=\"background-color:#6dce98\"><h1 style=\"background-color:MediumSeaGreen\" >Only 1900 left to go!</h1><img id=\"box\" src=\"img/prizes/coins.png\"></img><img id=\"box\" src=\"img/empty/purpleopenbox.png\"></img></div>","key_press":null,"trial_type":"html-keyboard-response","trial_index":177,"time_elapsed":554457,"internal_node_id":"0.0-19.76-1.76"},{"rt":921.0000000001164,"stimulus":"<p>Choose a box,</p>","button_pressed":2,"trial_type":"html-button-response","trial_index":178,"time_elapsed":555382,"internal_node_id":"0.0-19.77-0.77"},{"reward":50,"trial_type":"html-keyboard-response","trial_index":179,"time_elapsed":555383,"internal_node_id":"0.0-19.77-1.77"},{"penalty":50,"trial_type":"html-keyboard-response","trial_index":179,"time_elapsed":555383,"internal_node_id":"0.0-19.77-1.77"},{"fined":false,"trial_type":"html-keyboard-response","trial_index":179,"time_elapsed":555383,"internal_node_id":"0.0-19.77-1.77"},{"rt":null,"stimulus":"<div style=\"background-color:#6dce98\"><h1 style=\"background-color:MediumSeaGreen\" >You earned 50 coins! Well done!</h1><div style=\"background-color:#6dce98\"><h1 style=\"background-color:MediumSeaGreen\" >Only 1850 left to go!</h1><img id=\"box\" src=\"img/prizes/coins.png\"></img><img id=\"box\" src=\"img/empty/purpleopenbox.png\"></img></div>","key_press":null,"trial_type":"html-keyboard-response","trial_index":179,"time_elapsed":558387,"internal_node_id":"0.0-19.77-1.77"},{"rt":981,"stimulus":"<p>Choose a box,</p>","button_pressed":3,"trial_type":"html-button-response","trial_index":180,"time_elapsed":559373,"internal_node_id":"0.0-19.78-0.78"},{"reward":50,"trial_type":"html-keyboard-response","trial_index":181,"time_elapsed":559374,"internal_node_id":"0.0-19.78-1.78"},{"penalty":250,"trial_type":"html-keyboard-response","trial_index":181,"time_elapsed":559374,"internal_node_id":"0.0-19.78-1.78"},{"fined":false,"trial_type":"html-keyboard-response","trial_index":181,"time_elapsed":559374,"internal_node_id":"0.0-19.78-1.78"},{"rt":null,"stimulus":"<div style=\"background-color:#6dce98\"><h1 style=\"background-color:MediumSeaGreen\" >You earned 50 coins! Well done!</h1><div style=\"background-color:#6dce98\"><h1 style=\"background-color:MediumSeaGreen\" >Only 1800 left to go!</h1><img id=\"box\" src=\"img/prizes/coins.png\"></img><img id=\"box\" src=\"img/empty/redopenbox.png\"></img></div>","key_press":null,"trial_type":"html-keyboard-response","trial_index":181,"time_elapsed":562378,"internal_node_id":"0.0-19.78-1.78"},{"rt":1391,"stimulus":"<p>Choose a box,</p>","button_pressed":1,"trial_type":"html-button-response","trial_index":182,"time_elapsed":563774,"internal_node_id":"0.0-19.79-0.79"},{"reward":100,"trial_type":"html-keyboard-response","trial_index":183,"time_elapsed":563775,"internal_node_id":"0.0-19.79-1.79"},{"penalty":1250,"trial_type":"html-keyboard-response","trial_index":183,"time_elapsed":563775,"internal_node_id":"0.0-19.79-1.79"},{"fined":false,"trial_type":"html-keyboard-response","trial_index":183,"time_elapsed":563775,"internal_node_id":"0.0-19.79-1.79"},{"rt":null,"stimulus":"<div style=\"background-color:#6dce98\"><h1 style=\"background-color:MediumSeaGreen\" >You earned 100 coins! Well done!</h1><div style=\"background-color:#6dce98\"><h1 style=\"background-color:MediumSeaGreen\" >Only 1700 left to go!</h1><img id=\"box\" src=\"img/prizes/coins2.png\"></img><img id=\"box\" src=\"img/empty/greenopenbox.png\"></img></div>","key_press":null,"trial_type":"html-keyboard-response","trial_index":183,"time_elapsed":566779,"internal_node_id":"0.0-19.79-1.79"},{"rt":1882,"stimulus":"<p>Choose a box,</p>","button_pressed":0,"trial_type":"html-button-response","trial_index":184,"time_elapsed":568665,"internal_node_id":"0.0-19.80-0.80"},{"reward":100,"trial_type":"html-keyboard-response","trial_index":185,"time_elapsed":568666,"internal_node_id":"0.0-19.80-1.80"},{"penalty":250,"trial_type":"html-keyboard-response","trial_index":185,"time_elapsed":568666,"internal_node_id":"0.0-19.80-1.80"},{"fined":true,"trial_type":"html-keyboard-response","trial_index":185,"time_elapsed":568666,"internal_node_id":"0.0-19.80-1.80"},{"rt":null,"stimulus":"<div style=\"background-color:#ff7157\"><h1 style=\"background-color:MediumSeaGreen\">You earned 100 coins</h1><h1 h1 style=\"background-color:Tomato\">but you have recieved a fine of 250 coins</h1><h1 style=\"background-color:Tomato\">Remember, you need to keep going until you have 3000 coins!</h1><img id=\"box\" src=\"img/prizes/250.png\"></img><img id=\"box\" src=\"img/sad/blueopenboxsadthumb.png\"></img></div>","key_press":null,"trial_type":"html-keyboard-response","trial_index":185,"time_elapsed":571671,"internal_node_id":"0.0-19.80-1.80"},{"rt":931.9999999998836,"stimulus":"<p>Choose a box,</p>","button_pressed":3,"trial_type":"html-button-response","trial_index":186,"time_elapsed":572607,"internal_node_id":"0.0-19.81-0.81"},{"reward":50,"trial_type":"html-keyboard-response","trial_index":187,"time_elapsed":572608,"internal_node_id":"0.0-19.81-1.81"},{"penalty":250,"trial_type":"html-keyboard-response","trial_index":187,"time_elapsed":572608,"internal_node_id":"0.0-19.81-1.81"},{"fined":false,"trial_type":"html-keyboard-response","trial_index":187,"time_elapsed":572608,"internal_node_id":"0.0-19.81-1.81"},{"rt":null,"stimulus":"<div style=\"background-color:#6dce98\"><h1 style=\"background-color:MediumSeaGreen\" >You earned 50 coins! Well done!</h1><div style=\"background-color:#6dce98\"><h1 style=\"background-color:MediumSeaGreen\" >Only 1800 left to go!</h1><img id=\"box\" src=\"img/prizes/coins.png\"></img><img id=\"box\" src=\"img/empty/redopenbox.png\"></img></div>","key_press":null,"trial_type":"html-keyboard-response","trial_index":187,"time_elapsed":575612,"internal_node_id":"0.0-19.81-1.81"},{"rt":848,"stimulus":"<p>Choose a box,</p>","button_pressed":1,"trial_type":"html-button-response","trial_index":188,"time_elapsed":576465,"internal_node_id":"0.0-19.82-0.82"},{"reward":100,"trial_type":"html-keyboard-response","trial_index":189,"time_elapsed":576465,"internal_node_id":"0.0-19.82-1.82"},{"penalty":1250,"trial_type":"html-keyboard-response","trial_index":189,"time_elapsed":576465,"internal_node_id":"0.0-19.82-1.82"},{"fined":false,"trial_type":"html-keyboard-response","trial_index":189,"time_elapsed":576465,"internal_node_id":"0.0-19.82-1.82"},{"rt":null,"stimulus":"<div style=\"background-color:#6dce98\"><h1 style=\"background-color:MediumSeaGreen\" >You earned 100 coins! Well done!</h1><div style=\"background-color:#6dce98\"><h1 style=\"background-color:MediumSeaGreen\" >Only 1700 left to go!</h1><img id=\"box\" src=\"img/prizes/coins2.png\"></img><img id=\"box\" src=\"img/empty/greenopenbox.png\"></img></div>","key_press":null,"trial_type":"html-keyboard-response","trial_index":189,"time_elapsed":579470,"internal_node_id":"0.0-19.82-1.82"},{"rt":1224,"stimulus":"<p>Choose a box,</p>","button_pressed":1,"trial_type":"html-button-response","trial_index":190,"time_elapsed":580698,"internal_node_id":"0.0-19.83-0.83"},{"reward":100,"trial_type":"html-keyboard-response","trial_index":191,"time_elapsed":580699,"internal_node_id":"0.0-19.83-1.83"},{"penalty":1250,"trial_type":"html-keyboard-response","trial_index":191,"time_elapsed":580699,"internal_node_id":"0.0-19.83-1.83"},{"fined":false,"trial_type":"html-keyboard-response","trial_index":191,"time_elapsed":580699,"internal_node_id":"0.0-19.83-1.83"},{"rt":null,"stimulus":"<div style=\"background-color:#6dce98\"><h1 style=\"background-color:MediumSeaGreen\" >You earned 100 coins! Well done!</h1><div style=\"background-color:#6dce98\"><h1 style=\"background-color:MediumSeaGreen\" >Only 1600 left to go!</h1><img id=\"box\" src=\"img/prizes/coins2.png\"></img><img id=\"box\" src=\"img/empty/greenopenbox.png\"></img></div>","key_press":null,"trial_type":"html-keyboard-response","trial_index":191,"time_elapsed":583703,"internal_node_id":"0.0-19.83-1.83"},{"rt":2075,"stimulus":"<p>Choose a box,</p>","button_pressed":2,"trial_type":"html-button-response","trial_index":192,"time_elapsed":585783,"internal_node_id":"0.0-19.84-0.84"},{"reward":50,"trial_type":"html-keyboard-response","trial_index":193,"time_elapsed":585784,"internal_node_id":"0.0-19.84-1.84"},{"penalty":50,"trial_type":"html-keyboard-response","trial_index":193,"time_elapsed":585784,"internal_node_id":"0.0-19.84-1.84"},{"fined":false,"trial_type":"html-keyboard-response","trial_index":193,"time_elapsed":585784,"internal_node_id":"0.0-19.84-1.84"},{"rt":null,"stimulus":"<div style=\"background-color:#6dce98\"><h1 style=\"background-color:MediumSeaGreen\" >You earned 50 coins! Well done!</h1><div style=\"background-color:#6dce98\"><h1 style=\"background-color:MediumSeaGreen\" >Only 1550 left to go!</h1><img id=\"box\" src=\"img/prizes/coins.png\"></img><img id=\"box\" src=\"img/empty/purpleopenbox.png\"></img></div>","key_press":null,"trial_type":"html-keyboard-response","trial_index":193,"time_elapsed":588788,"internal_node_id":"0.0-19.84-1.84"},{"rt":1060,"stimulus":"<p>Choose a box,</p>","button_pressed":1,"trial_type":"html-button-response","trial_index":194,"time_elapsed":589851,"internal_node_id":"0.0-19.85-0.85"},{"reward":100,"trial_type":"html-keyboard-response","trial_index":195,"time_elapsed":589852,"internal_node_id":"0.0-19.85-1.85"},{"penalty":1250,"trial_type":"html-keyboard-response","trial_index":195,"time_elapsed":589852,"internal_node_id":"0.0-19.85-1.85"},{"fined":false