[{"view_history":"[{\"page_index\":0,\"viewing_time\":13824.825000017881},{\"page_index\":1,\"viewing_time\":6759.740000008605},{\"page_index\":2,\"viewing_time\":9171.589999925345},{\"page_index\":3,\"viewing_time\":18001.425000024028},{\"page_index\":4,\"viewing_time\":2141.1150000058115},{\"page_index\":5,\"viewing_time\":3362.80500004068}]","rt":53262.50999991316,"trial_type":"instructions","trial_index":0,"time_elapsed":53266,"internal_node_id":"0.0-0.0"},{"rt":5653.515000012703,"responses":"{\"Q0\":\"Yes\",\"Q1\":\"Yes\",\"Q2\":\"Yes\"}","question_order":"[0,1,2]","trial_type":"survey-multi-choice","trial_index":1,"time_elapsed":58922,"internal_node_id":"0.0-1.0-0.0"},{"rt":11491.990000009537,"responses":"{\"Q0\":\"Yes\",\"Q1\":\"Yes\",\"Q2\":\"Yes\"}","question_order":"[0,1,2]","trial_type":"survey-multi-choice","trial_index":2,"time_elapsed":70418,"internal_node_id":"0.0-2.0-0.0"},{"rt":7483.705000020564,"responses":"{\"Q0\":\"5f26a626df170d3f8a72f58a\"}","trial_type":"survey-text","trial_index":3,"time_elapsed":77908,"internal_node_id":"0.0-3.0"},{"rt":3352.9100000159815,"responses":"{\"Q0\":\"Male\",\"Q1\":\"18-25\"}","question_order":"[0,1]","trial_type":"survey-multi-choice","trial_index":4,"time_elapsed":81265,"internal_node_id":"0.0-4.0"},{"rt":2704.344999976456,"responses":"{\"Q0\":\"\"}","trial_type":"survey-text","trial_index":5,"time_elapsed":83972,"internal_node_id":"0.0-5.0"},{"view_history":"[{\"page_index\":0,\"viewing_time\":2746.669999905862}]","rt":2746.9900000141934,"trial_type":"instructions","trial_index":6,"time_elapsed":86720,"internal_node_id":"0.0-6.0"},{"rt":11515.394999994896,"responses":"{\"Interested\":3,\"Distressed\":0,\"Excited\":3,\"Upset\":2}","question_order":"[0,1,2,3]","trial_type":"survey-likert","trial_index":7,"time_elapsed":98238,"internal_node_id":"0.0-7.0"},{"rt":11578.285000054166,"responses":"{\"Strong\":3,\"Guilty\":1,\"Scared\":3,\"Hostile\":2}","question_order":"[0,1,2,3]","trial_type":"survey-likert","trial_index":8,"time_elapsed":109819,"internal_node_id":"0.0-8.0"},{"rt":8977.900000056252,"responses":"{\"Enthusiastic\":2,\"Proud\":3,\"Irritable\":1,\"Alert\":4}","question_order":"[0,1,2,3]","trial_type":"survey-likert","trial_index":9,"time_elapsed":118800,"internal_node_id":"0.0-9.0"},{"rt":9272.359999944456,"responses":"{\"Ashamed\":2,\"Inspired\":3,\"Nervous\":3,\"Determined\":3}","question_order":"[0,1,2,3]","trial_type":"survey-likert","trial_index":10,"time_elapsed":128076,"internal_node_id":"0.0-10.0"},{"rt":10999.070000019856,"responses":"{\"Attentive\":3,\"Jittery\":3,\"Active\":2,\"Afraid\":2}","question_order":"[0,1,2,3]","trial_type":"survey-likert","trial_index":11,"time_elapsed":139078,"internal_node_id":"0.0-11.0"},{"rt":23985.12500000652,"responses":"{\"Q0\":1,\"Q1\":0,\"Q2\":0,\"Q3\":1}","question_order":"[0,1,2,3]","trial_type":"survey-likert","trial_index":12,"time_elapsed":163065,"internal_node_id":"0.0-12.0"},{"rt":28765.949999913573,"responses":"{\"Q0\":0,\"Q1\":0,\"Q2\":2,\"Q3\":0}","question_order":"[0,1,2,3]","trial_type":"survey-likert","trial_index":13,"time_elapsed":191834,"internal_node_id":"0.0-13.0"},{"rt":21868.580000009388,"responses":"{\"Q0\":1,\"Q1\":1,\"Q2\":2,\"Q3\":0}","question_order":"[0,1,2,3]","trial_type":"survey-likert","trial_index":14,"time_elapsed":213705,"internal_node_id":"0.0-14.0"},{"rt":8819.299999973737,"responses":"{\"Q0\":0,\"Q1\":0,\"Q2\":1}","question_order":"[0,1,2]","trial_type":"survey-likert","trial_index":15,"time_elapsed":222527,"internal_node_id":"0.0-15.0"},{"view_history":"[{\"page_index\":0,\"viewing_time\":3095.810000086203},{\"page_index\":1,\"viewing_time\":7285.029999911785},{\"page_index\":2,\"viewing_time\":10296.910000033677}]","rt":20679.42500009667,"trial_type":"instructions","trial_index":16,"time_elapsed":243209,"internal_node_id":"0.0-16.0"},{"rt":4267.07499998156,"stimulus":"<p>Choose a box,</p>","button_pressed":3,"trial_type":"html-button-response","trial_index":17,"time_elapsed":247479,"internal_node_id":"0.0-17.0-0.0"},{"reward":50,"trial_type":"html-keyboard-response","trial_index":18,"time_elapsed":247480,"internal_node_id":"0.0-17.0-1.0"},{"penalty":250,"trial_type":"html-keyboard-response","trial_index":18,"time_elapsed":247480,"internal_node_id":"0.0-17.0-1.0"},{"fined":false,"trial_type":"html-keyboard-response","trial_index":18,"time_elapsed":247480,"internal_node_id":"0.0-17.0-1.0"},{"rt":null,"stimulus":"<div style=\"background-color:#6dce98\"><h1 style=\"background-color:MediumSeaGreen\" >You earned 50 coins! Well done!</h1><div style=\"background-color:#6dce98\"><h1 style=\"background-color:MediumSeaGreen\" >Only 1450 left to go!</h1><img id=\"box\" src=\"img/prizes/coins.png\"></img><img id=\"box\" src=\"img/empty/redopenbox.png\"></img></div>","key_press":null,"trial_type":"html-keyboard-response","trial_index":18,"time_elapsed":250482,"internal_node_id":"0.0-17.0-1.0"},{"rt":1175.12499995064,"stimulus":"<p>Choose a box,</p>","button_pressed":3,"trial_type":"html-button-response","trial_index":19,"time_elapsed":251659,"internal_node_id":"0.0-17.0-0.1"},{"reward":50,"trial_type":"html-keyboard-response","trial_index":20,"time_elapsed":251659,"internal_node_id":"0.0-17.0-1.1"},{"penalty":250,"trial_type":"html-keyboard-response","trial_index":20,"time_elapsed":251659,"internal_node_id":"0.0-17.0-1.1"},{"fined":false,"trial_type":"html-keyboard-response","trial_index":20,"time_elapsed":251659,"internal_node_id":"0.0-17.0-1.1"},{"rt":null,"stimulus":"<div style=\"background-color:#6dce98\"><h1 style=\"background-color:MediumSeaGreen\" >You earned 50 coins! Well done!</h1><div style=\"background-color:#6dce98\"><h1 style=\"background-color:MediumSeaGreen\" >Only 1400 left to go!</h1><img id=\"box\" src=\"img/prizes/coins.png\"></img><img id=\"box\" src=\"img/empty/redopenbox.png\"></img></div>","key_press":null,"trial_type":"html-keyboard-response","trial_index":20,"time_elapsed":254660,"internal_node_id":"0.0-17.0-1.1"},{"rt":887.6950000412762,"stimulus":"<p>Choose a box,</p>","button_pressed":3,"trial_type":"html-button-response","trial_index":21,"time_elapsed":255551,"internal_node_id":"0.0-17.0-0.2"},{"reward":50,"trial_type":"html-keyboard-response","trial_index":22,"time_elapsed":255551,"internal_node_id":"0.0-17.0-1.2"},{"penalty":250,"trial_type":"html-keyboard-response","trial_index":22,"time_elapsed":255551,"internal_node_id":"0.0-17.0-1.2"},{"fined":false,"trial_type":"html-keyboard-response","trial_index":22,"time_elapsed":255551,"internal_node_id":"0.0-17.0-1.2"},{"rt":null,"stimulus":"<div style=\"background-color:#6dce98\"><h1 style=\"background-color:MediumSeaGreen\" >You earned 50 coins! Well done!</h1><div style=\"background-color:#6dce98\"><h1 style=\"background-color:MediumSeaGreen\" >Only 1350 left to go!</h1><img id=\"box\" src=\"img/prizes/coins.png\"></img><img id=\"box\" src=\"img/empty/redopenbox.png\"></img></div>","key_press":null,"trial_type":"html-keyboard-response","trial_index":22,"time_elapsed":258553,"internal_node_id":"0.0-17.0-1.2"},{"view_history":"[{\"page_index\":0,\"viewing_time\":8598.92499994021}]","rt":8599.259999929927,"trial_type":"instructions","trial_index":23,"time_elapsed":267154,"internal_node_id":"0.0-18.0"},{"rt":898.5800000373274,"stimulus":"<p>Choose a box,</p>","button_pressed":0,"trial_type":"html-button-response","trial_index":24,"time_elapsed":268054,"internal_node_id":"0.0-19.0-0.0"},{"reward":100,"trial_type":"html-keyboard-response","trial_index":25,"time_elapsed":268054,"internal_node_id":"0.0-19.0-1.0"},{"penalty":250,"trial_type":"html-keyboard-response","trial_index":25,"time_elapsed":268054,"internal_node_id":"0.0-19.0-1.0"},{"fined":false,"trial_type":"html-keyboard-response","trial_index":25,"time_elapsed":268054,"internal_node_id":"0.0-19.0-1.0"},{"rt":null,"stimulus":"<div style=\"background-color:#6dce98\"><h1 style=\"background-color:MediumSeaGreen\" >You earned 100 coins! Well done!</h1><div style=\"background-color:#6dce98\"><h1 style=\"background-color:MediumSeaGreen\" >Only 1400 left to go!</h1><img id=\"box\" src=\"img/prizes/coins2.png\"></img><img id=\"box\" src=\"img/empty/blueopenbox.png\"></img></div>","key_press":null,"trial_type":"html-keyboard-response","trial_index":25,"time_elapsed":271056,"internal_node_id":"0.0-19.0-1.0"},{"rt":873.1550000375137,"stimulus":"<p>Choose a box,</p>","button_pressed":3,"trial_type":"html-button-response","trial_index":26,"time_elapsed":271932,"internal_node_id":"0.0-19.1-0.1"},{"reward":50,"trial_type":"html-keyboard-response","trial_index":27,"time_elapsed":271932,"internal_node_id":"0.0-19.1-1.1"},{"penalty":250,"trial_type":"html-keyboard-response","trial_index":27,"time_elapsed":271932,"internal_node_id":"0.0-19.1-1.1"},{"fined":false,"trial_type":"html-keyboard-response","trial_index":27,"time_elapsed":271932,"internal_node_id":"0.0-19.1-1.1"},{"rt":null,"stimulus":"<div style=\"background-color:#6dce98\"><h1 style=\"background-color:MediumSeaGreen\" >You earned 50 coins! Well done!</h1><div style=\"background-color:#6dce98\"><h1 style=\"background-color:MediumSeaGreen\" >Only 1350 left to go!</h1><img id=\"box\" src=\"img/prizes/coins.png\"></img><img id=\"box\" src=\"img/empty/redopenbox.png\"></img></div>","key_press":null,"trial_type":"html-keyboard-response","trial_index":27,"time_elapsed":274933,"internal_node_id":"0.0-19.1-1.1"},{"rt":583.6049999343231,"stimulus":"<p>Choose a box,</p>","button_pressed":1,"trial_type":"html-button-response","trial_index":28,"time_elapsed":275519,"internal_node_id":"0.0-19.2-0.2"},{"reward":100,"trial_type":"html-keyboard-response","trial_index":29,"time_elapsed":275520,"internal_node_id":"0.0-19.2-1.2"},{"penalty":1250,"trial_type":"html-keyboard-response","trial_index":29,"time_elapsed":275520,"internal_node_id":"0.0-19.2-1.2"},{"fined":false,"trial_type":"html-keyboard-response","trial_index":29,"time_elapsed":275520,"internal_node_id":"0.0-19.2-1.2"},{"rt":null,"stimulus":"<div style=\"background-color:#6dce98\"><h1 style=\"background-color:MediumSeaGreen\" >You earned 100 coins! Well done!</h1><div style=\"background-color:#6dce98\"><h1 style=\"background-color:MediumSeaGreen\" >Only 1250 left to go!</h1><img id=\"box\" src=\"img/prizes/coins2.png\"></img><img id=\"box\" src=\"img/empty/greenopenbox.png\"></img></div>","key_press":null,"trial_type":"html-keyboard-response","trial_index":29,"time_elapsed":278521,"internal_node_id":"0.0-19.2-1.2"},{"rt":571.1799999698997,"stimulus":"<p>Choose a box,</p>","button_pressed":2,"trial_type":"html-button-response","trial_index":30,"time_elapsed":279095,"internal_node_id":"0.0-19.3-0.3"},{"reward":50,"trial_type":"html-keyboard-response","trial_index":31,"time_elapsed":279095,"internal_node_id":"0.0-19.3-1.3"},{"penalty":50,"trial_type":"html-keyboard-response","trial_index":31,"time_elapsed":279095,"internal_node_id":"0.0-19.3-1.3"},{"fined":true,"trial_type":"html-keyboard-response","trial_index":31,"time_elapsed":279095,"internal_node_id":"0.0-19.3-1.3"},{"rt":null,"stimulus":"<div style=\"background-color:#ff7157\"><h1 style=\"background-color:MediumSeaGreen\">You earned 50 coins</h1><h1 h1 style=\"background-color:Tomato\">but you have recieved a fine of 50 coins</h1><h1 style=\"background-color:Tomato\">Remember, you need to keep going until you have 3000 coins!</h1><img id=\"box\" src=\"img/prizes/50.png\"></img><img id=\"box\" src=\"img/sad/purpleopenboxsadthumb.png\"></img></div>","key_press":null,"trial_type":"html-keyboard-response","trial_index":31,"time_elapsed":282097,"internal_node_id":"0.0-19.3-1.3"},{"rt":1064.394999993965,"stimulus":"<p>Choose a box,</p>","button_pressed":0,"trial_type":"html-button-response","trial_index":32,"time_elapsed":283163,"internal_node_id":"0.0-19.4-0.4"},{"reward":100,"trial_type":"html-keyboard-response","trial_index":33,"time_elapsed":283164,"internal_node_id":"0.0-19.4-1.4"},{"penalty":250,"trial_type":"html-keyboard-response","trial_index":33,"time_elapsed":283164,"internal_node_id":"0.0-19.4-1.4"},{"fined":false,"trial_type":"html-keyboard-response","trial_index":33,"time_elapsed":283164,"internal_node_id":"0.0-19.4-1.4"},{"rt":null,"stimulus":"<div style=\"background-color:#6dce98\"><h1 style=\"background-color:MediumSeaGreen\" >You earned 100 coins! Well done!</h1><div style=\"background-color:#6dce98\"><h1 style=\"background-color:MediumSeaGreen\" >Only 1150 left to go!</h1><img id=\"box\" src=\"img/prizes/coins2.png\"></img><img id=\"box\" src=\"img/empty/blueopenbox.png\"></img></div>","key_press":null,"trial_type":"html-keyboard-response","trial_index":33,"time_elapsed":286167,"internal_node_id":"0.0-19.4-1.4"},{"rt":520.6350000808015,"stimulus":"<p>Choose a box,</p>","button_pressed":0,"trial_type":"html-button-response","trial_index":34,"time_elapsed":286691,"internal_node_id":"0.0-19.5-0.5"},{"reward":100,"trial_type":"html-keyboard-response","trial_index":35,"time_elapsed":286692,"internal_node_id":"0.0-19.5-1.5"},{"penalty":250,"trial_type":"html-keyboard-response","trial_index":35,"time_elapsed":286692,"internal_node_id":"0.0-19.5-1.5"},{"fined":true,"trial_type":"html-keyboard-response","trial_index":35,"time_elapsed":286692,"internal_node_id":"0.0-19.5-1.5"},{"rt":null,"stimulus":"<div style=\"background-color:#ff7157\"><h1 style=\"background-color:MediumSeaGreen\">You earned 100 coins</h1><h1 h1 style=\"background-color:Tomato\">but you have recieved a fine of 250 coins</h1><h1 style=\"background-color:Tomato\">Remember, you need to keep going until you have 3000 coins!</h1><img id=\"box\" src=\"img/prizes/250.png\"></img><img id=\"box\" src=\"img/sad/blueopenboxsadthumb.png\"></img></div>","key_press":null,"trial_type":"html-keyboard-response","trial_index":35,"time_elapsed":289694,"internal_node_id":"0.0-19.5-1.5"},{"rt":408.18999998737127,"stimulus":"<p>Choose a box,</p>","button_pressed":2,"trial_type":"html-button-response","trial_index":36,"time_elapsed":290104,"internal_node_id":"0.0-19.6-0.6"},{"reward":50,"trial_type":"html-keyboard-response","trial_index":37,"time_elapsed":290104,"internal_node_id":"0.0-19.6-1.6"},{"penalty":50,"trial_type":"html-keyboard-response","trial_index":37,"time_elapsed":290104,"internal_node_id":"0.0-19.6-1.6"},{"fined":true,"trial_type":"html-keyboard-response","trial_index":37,"time_elapsed":290104,"internal_node_id":"0.0-19.6-1.6"},{"rt":null,"stimulus":"<div style=\"background-color:#ff7157\"><h1 style=\"background-color:MediumSeaGreen\">You earned 50 coins</h1><h1 h1 style=\"background-color:Tomato\">but you have recieved a fine of 50 coins</h1><h1 style=\"background-color:Tomato\">Remember, you need to keep going until you have 3000 coins!</h1><img id=\"box\" src=\"img/prizes/50.png\"></img><img id=\"box\" src=\"img/sad/purpleopenboxsadthumb.png\"></img></div>","key_press":null,"trial_type":"html-keyboard-response","trial_index":37,"time_elapsed":293106,"internal_node_id":"0.0-19.6-1.6"},{"rt":488.0750000011176,"stimulus":"<p>Choose a box,</p>","button_pressed":1,"trial_type":"html-button-response","trial_index":38,"time_elapsed":293597,"internal_node_id":"0.0-19.7-0.7"},{"reward":100,"trial_type":"html-keyboard-response","trial_index":39,"time_elapsed":293597,"internal_node_id":"0.0-19.7-1.7"},{"penalty":1250,"trial_type":"html-keyboard-response","trial_index":39,"time_elapsed":293597,"internal_node_id":"0.0-19.7-1.7"},{"fined":false,"trial_type":"html-keyboard-response","trial_index":39,"time_elapsed":293597,"internal_node_id":"0.0-19.7-1.7"},{"rt":null,"stimulus":"<div style=\"background-color:#6dce98\"><h1 style=\"background-color:MediumSeaGreen\" >You earned 100 coins! Well done!</h1><div style=\"background-color:#6dce98\"><h1 style=\"background-color:MediumSeaGreen\" >Only 1200 left to go!</h1><img id=\"box\" src=\"img/prizes/coins2.png\"></img><img id=\"box\" src=\"img/empty/greenopenbox.png\"></img></div>","key_press":null,"trial_type":"html-keyboard-response","trial_index":39,"time_elapsed":296599,"internal_node_id":"0.0-19.7-1.7"},{"rt":719.1700000548735,"stimulus":"<p>Choose a box,</p>","button_pressed":3,"trial_type":"html-button-response","trial_index":40,"time_elapsed":297321,"internal_node_id":"0.0-19.8-0.8"},{"reward":50,"trial_type":"html-keyboard-response","trial_index":41,"time_elapsed":297322,"internal_node_id":"0.0-19.8-1.8"},{"penalty":250,"trial_type":"html-keyboard-response","trial_index":41,"time_elapsed":297322,"internal_node_id":"0.0-19.8-1.8"},{"fined":false,"trial_type":"html-keyboard-response","trial_index":41,"time_elapsed":297322,"internal_node_id":"0.0-19.8-1.8"},{"rt":null,"stimulus":"<div style=\"background-color:#6dce98\"><h1 style=\"background-color:MediumSeaGreen\" >You earned 50 coins! Well done!</h1><div style=\"background-color:#6dce98\"><h1 style=\"background-color:MediumSeaGreen\" >Only 1150 left to go!</h1><img id=\"box\" src=\"img/prizes/coins.png\"></img><img id=\"box\" src=\"img/empty/redopenbox.png\"></img></div>","key_press":null,"trial_type":"html-keyboard-response","trial_index":41,"time_elapsed":300324,"internal_node_id":"0.0-19.8-1.8"},{"rt":580.9100000187755,"stimulus":"<p>Choose a box,</p>","button_pressed":0,"trial_type":"html-button-response","trial_index":42,"time_elapsed":300907,"internal_node_id":"0.0-19.9-0.9"},{"reward":100,"trial_type":"html-keyboard-response","trial_index":43,"time_elapsed":300908,"internal_node_id":"0.0-19.9-1.9"},{"penalty":250,"trial_type":"html-keyboard-response","trial_index":43,"time_elapsed":300908,"internal_node_id":"0.0-19.9-1.9"},{"fined":false,"trial_type":"html-keyboard-response","trial_index":43,"time_elapsed":300908,"internal_node_id":"0.0-19.9-1.9"},{"rt":null,"stimulus":"<div style=\"background-color:#6dce98\"><h1 style=\"background-color:MediumSeaGreen\" >You earned 100 coins! Well done!</h1><div style=\"background-color:#6dce98\"><h1 style=\"background-color:MediumSeaGreen\" >Only 1050 left to go!</h1><img id=\"box\" src=\"img/prizes/coins2.png\"></img><img id=\"box\" src=\"img/empty/blueopenbox.png\"></img></div>","key_press":null,"trial_type":"html-keyboard-response","trial_index":43,"time_elapsed":303909,"internal_node_id":"0.0-19.9-1.9"},{"rt":321.8449999112636,"stimulus":"<p>Choose a box,</p>","button_pressed":2,"trial_type":"html-button-response","trial_index":44,"time_elapsed":304234,"internal_node_id":"0.0-19.10-0.10"},{"reward":50,"trial_type":"html-keyboard-response","trial_index":45,"time_elapsed":304234,"internal_node_id":"0.0-19.10-1.10"},{"penalty":50,"trial_type":"html-keyboard-response","trial_index":45,"time_elapsed":304234,"internal_node_id":"0.0-19.10-1.10"},{"fined":true,"trial_type":"html-keyboard-response","trial_index":45,"time_elapsed":304234,"internal_node_id":"0.0-19.10-1.10"},{"rt":null,"stimulus":"<div style=\"background-color:#ff7157\"><h1 style=\"background-color:MediumSeaGreen\">You earned 50 coins</h1><h1 h1 style=\"background-color:Tomato\">but you have recieved a fine of 50 coins</h1><h1 style=\"background-color:Tomato\">Remember, you need to keep going until you have 3000 coins!</h1><img id=\"box\" src=\"img/prizes/50.png\"></img><img id=\"box\" src=\"img/sad/purpleopenboxsadthumb.png\"></img></div>","key_press":null,"trial_type":"html-keyboard-response","trial_index":45,"time_elapsed":307235,"internal_node_id":"0.0-19.10-1.10"},{"rt":568.8099999679253,"stimulus":"<p>Choose a box,</p>","button_pressed":0,"trial_type":"html-button-response","trial_index":46,"time_elapsed":307806,"internal_node_id":"0.0-19.11-0.11"},{"reward":100,"trial_type":"html-keyboard-response","trial_index":47,"time_elapsed":307806,"internal_node_id":"0.0-19.11-1.11"},{"penalty":250,"trial_type":"html-keyboard-response","trial_index":47,"time_elapsed":307806,"internal_node_id":"0.0-19.11-1.11"},{"fined":false,"trial_type":"html-keyboard-response","trial_index":47,"time_elapsed":307806,"internal_node_id":"0.0-19.11-1.11"},{"rt":null,"stimulus":"<div style=\"background-color:#6dce98\"><h1 style=\"background-color:MediumSeaGreen\" >You earned 100 coins! Well done!</h1><div style=\"background-color:#6dce98\"><h1 style=\"background-color:MediumSeaGreen\" >Only 950 left to go!</h1><img id=\"box\" src=\"img/prizes/coins2.png\"></img><img id=\"box\" src=\"img/empty/blueopenbox.png\"></img></div>","key_press":null,"trial_type":"html-keyboard-response","trial_index":47,"time_elapsed":310807,"internal_node_id":"0.0-19.11-1.11"},{"rt":392.1149999368936,"stimulus":"<p>Choose a box,</p>","button_pressed":3,"trial_type":"html-button-response","trial_index":48,"time_elapsed":311203,"internal_node_id":"0.0-19.12-0.12"},{"reward":50,"trial_type":"html-keyboard-response","trial_index":49,"time_elapsed":311203,"internal_node_id":"0.0-19.12-1.12"},{"penalty":250,"trial_type":"html-keyboard-response","trial_index":49,"time_elapsed":311204,"internal_node_id":"0.0-19.12-1.12"},{"fined":false,"trial_type":"html-keyboard-response","trial_index":49,"time_elapsed":311204,"internal_node_id":"0.0-19.12-1.12"},{"rt":null,"stimulus":"<div style=\"background-color:#6dce98\"><h1 style=\"background-color:MediumSeaGreen\" >You earned 50 coins! Well done!</h1><div style=\"background-color:#6dce98\"><h1 style=\"background-color:MediumSeaGreen\" >Only 900 left to go!</h1><img id=\"box\" src=\"img/prizes/coins.png\"></img><img id=\"box\" src=\"img/empty/redopenbox.png\"></img></div>","key_press":null,"trial_type":"html-keyboard-response","trial_index":49,"time_elapsed":314205,"internal_node_id":"0.0-19.12-1.12"},{"rt":323.84999992791563,"stimulus":"<p>Choose a box,</p>","button_pressed":1,"trial_type":"html-button-response","trial_index":50,"time_elapsed":314531,"internal_node_id":"0.0-19.13-0.13"},{"reward":100,"trial_type":"html-keyboard-response","trial_index":51,"time_elapsed":314532,"internal_node_id":"0.0-19.13-1.13"},{"penalty":1250,"trial_type":"html-keyboard-response","trial_index":51,"time_elapsed":314532,"internal_node_id":"0.0-19.13-1.13"},{"fined":false,"trial_type":"html-keyboard-response","trial_index":51,"time_elapsed":314532,"internal_node_id":"0.0-19.13-1.13"},{"rt":null,"stimulus":"<div style=\"background-color:#6dce98\"><h1 style=\"background-color:MediumSeaGreen\" >You earned 100 coins! Well done!</h1><div style=\"background-color:#6dce98\"><h1 style=\"background-color:MediumSeaGreen\" >Only 800 left to go!</h1><img id=\"box\" src=\"img/prizes/coins2.png\"></img><img id=\"box\" src=\"img/empty/greenopenbox.png\"></img></div>","key_press":null,"trial_type":"html-keyboard-response","trial_index":51,"time_elapsed":317534,"internal_node_id":"0.0-19.13-1.13"},{"rt":1014.0250000404194,"stimulus":"<p>Choose a box,</p>","button_pressed":3,"trial_type":"html-button-response","trial_index":52,"time_elapsed":318550,"internal_node_id":"0.0-19.14-0.14"},{"reward":50,"trial_type":"html-keyboard-response","trial_index":53,"time_elapsed":318551,"internal_node_id":"0.0-19.14-1.14"},{"penalty":250,"trial_type":"html-keyboard-response","trial_index":53,"time_elapsed":318551,"internal_node_id":"0.0-19.14-1.14"},{"fined":false,"trial_type":"html-keyboard-response","trial_index":53,"time_elapsed":318551,"internal_node_id":"0.0-19.14-1.14"},{"rt":null,"stimulus":"<div style=\"background-color:#6dce98\"><h1 style=\"background-color:MediumSeaGreen\" >You earned 50 coins! Well done!</h1><div style=\"background-color:#6dce98\"><h1 style=\"background-color:MediumSeaGreen\" >Only 750 left to go!</h1><img id=\"box\" src=\"img/prizes/coins.png\"></img><img id=\"box\" src=\"img/empty/redopenbox.png\"></img></div>","key_press":null,"trial_type":"html-keyboard-response","trial_index":53,"time_elapsed":321552,"internal_node_id":"0.0-19.14-1.14"},{"rt":291.1300000268966,"stimulus":"<p>Choose a box,</p>","button_pressed":0,"trial_type":"html-button-response","trial_index":54,"time_elapsed":321846,"internal_node_id":"0.0-19.15-0.15"},{"reward":100,"trial_type":"html-keyboard-response","trial_index":55,"time_elapsed":321846,"internal_node_id":"0.0-19.15-1.15"},{"penalty":250,"trial_type":"html-keyboard-response","trial_index":55,"time_elapsed":321846,"internal_node_id":"0.0-19.15-1.15"},{"fined":false,"trial_type":"html-keyboard-response","trial_index":55,"time_elapsed":321846,"internal_node_id":"0.0-19.15-1.15"},{"rt":null,"stimulus":"<div style=\"background-color:#6dce98\"><h1 style=\"background-color:MediumSeaGreen\" >You earned 100 coins! Well done!</h1><div style=\"background-color:#6dce98\"><h1 style=\"background-color:MediumSeaGreen\" >Only 650 left to go!</h1><img id=\"box\" src=\"img/prizes/coins2.png\"></img><img id=\"box\" src=\"img/empty/blueopenbox.png\"></img></div>","key_press":null,"trial_type":"html-keyboard-response","trial_index":55,"time_elapsed":324849,"internal_node_id":"0.0-19.15-1.15"},{"rt":416.5750000393018,"stimulus":"<p>Choose a box,</p>","button_pressed":3,"trial_type":"html-button-response","trial_index":56,"time_elapsed":325268,"internal_node_id":"0.0-19.16-0.16"},{"reward":50,"trial_type":"html-keyboard-response","trial_index":57,"time_elapsed":325268,"internal_node_id":"0.0-19.16-1.16"},{"penalty":250,"trial_type":"html-keyboard-response","trial_index":57,"time_elapsed":325268,"internal_node_id":"0.0-19.16-1.16"},{"fined":false,"trial_type":"html-keyboard-response","trial_index":57,"time_elapsed":325268,"internal_node_id":"0.0-19.16-1.16"},{"rt":null,"stimulus":"<div style=\"background-color:#6dce98\"><h1 style=\"background-color:MediumSeaGreen\" >You earned 50 coins! Well done!</h1><div style=\"background-color:#6dce98\"><h1 style=\"background-color:MediumSeaGreen\" >Only 600 left to go!</h1><img id=\"box\" src=\"img/prizes/coins.png\"></img><img id=\"box\" src=\"img/empty/redopenbox.png\"></img></div>","key_press":null,"trial_type":"html-keyboard-response","trial_index":57,"time_elapsed":328269,"internal_node_id":"0.0-19.16-1.16"},{"rt":414.58500002045184,"stimulus":"<p>Choose a box,</p>","button_pressed":1,"trial_type":"html-button-response","trial_index":58,"time_elapsed":328687,"internal_node_id":"0.0-19.17-0.17"},{"reward":100,"trial_type":"html-keyboard-response","trial_index":59,"time_elapsed":328687,"internal_node_id":"0.0-19.17-1.17"},{"penalty":1250,"trial_type":"html-keyboard-response","trial_index":59,"time_elapsed":328687,"internal_node_id":"0.0-19.17-1.17"},{"fined":true,"trial_type":"html-keyboard-response","trial_index":59,"time_elapsed":328687,"internal_node_id":"0.0-19.17-1.17"},{"rt":null,"stimulus":"<div style=\"background-color:#ff7157\"><h1 style=\"background-color:MediumSeaGreen\">You earned 100 coins</h1><h1 h1 style=\"background-color:Tomato\">but you have recieved a fine of 1250 coins</h1><h1 style=\"background-color:Tomato\">Remember, you need to keep going until you have 3000 coins!</h1><img id=\"box\" src=\"img/prizes/1250.png\"></img><img id=\"box\" src=\"img/sad/greenopenboxsadthumb.png\"></img></div>","key_press":null,"trial_type":"html-keyboard-response","trial_index":59,"time_elapsed":331689,"internal_node_id":"0.0-19.17-1.17"},{"rt":753.5250000655651,"stimulus":"<p>Choose a box,</p>","button_pressed":0,"trial_type":"html-button-response","trial_index":60,"time_elapsed":332445,"internal_node_id":"0.0-19.18-0.18"},{"reward":100,"trial_type":"html-keyboard-response","trial_index":61,"time_elapsed":332446,"internal_node_id":"0.0-19.18-1.18"},{"penalty":250,"trial_type":"html-keyboard-response","trial_index":61,"time_elapsed":332446,"internal_node_id":"0.0-19.18-1.18"},{"fined":false,"trial_type":"html-keyboard-response","trial_index":61,"time_elapsed":332446,"internal_node_id":"0.0-19.18-1.18"},{"rt":null,"stimulus":"<div style=\"background-color:#6dce98\"><h1 style=\"background-color:MediumSeaGreen\" >You earned 100 coins! Well done!</h1><div style=\"background-color:#6dce98\"><h1 style=\"background-color:MediumSeaGreen\" >Only 1650 left to go!</h1><img id=\"box\" src=\"img/prizes/coins2.png\"></img><img id=\"box\" src=\"img/empty/blueopenbox.png\"></img></div>","key_press":null,"trial_type":"html-keyboard-response","trial_index":61,"time_elapsed":335448,"internal_node_id":"0.0-19.18-1.18"},{"rt":579.1650000028312,"stimulus":"<p>Choose a box,</p>","button_pressed":3,"trial_type":"html-button-response","trial_index":62,"time_elapsed":336030,"internal_node_id":"0.0-19.19-0.19"},{"reward":50,"trial_type":"html-keyboard-response","trial_index":63,"time_elapsed":336031,"internal_node_id":"0.0-19.19-1.19"},{"penalty":250,"trial_type":"html-keyboard-response","trial_index":63,"time_elapsed":336031,"internal_node_id":"0.0-19.19-1.19"},{"fined":false,"trial_type":"html-keyboard-response","trial_index":63,"time_elapsed":336031,"internal_node_id":"0.0-19.19-1.19"},{"rt":null,"stimulus":"<div style=\"background-color:#6dce98\"><h1 style=\"background-color:MediumSeaGreen\" >You earned 50 coins! Well done!</h1><div style=\"background-color:#6dce98\"><h1 style=\"background-color:MediumSeaGreen\" >Only 1600 left to go!</h1><img id=\"box\" src=\"img/prizes/coins.png\"></img><img id=\"box\" src=\"img/empty/redopenbox.png\"></img></div>","key_press":null,"trial_type":"html-keyboard-response","trial_index":63,"time_elapsed":339033,"internal_node_id":"0.0-19.19-1.19"},{"rt":416.1549999844283,"stimulus":"<p>Choose a box,</p>","button_pressed":3,"trial_type":"html-button-response","trial_index":64,"time_elapsed":339451,"internal_node_id":"0.0-19.20-0.20"},{"reward":50,"trial_type":"html-keyboard-response","trial_index":65,"time_elapsed":339452,"internal_node_id":"0.0-19.20-1.20"},{"penalty":250,"trial_type":"html-keyboard-response","trial_index":65,"time_elapsed":339452,"internal_node_id":"0.0-19.20-1.20"},{"fined":true,"trial_type":"html-keyboard-response","trial_index":65,"time_elapsed":339452,"internal_node_id":"0.0-19.20-1.20"},{"rt":null,"stimulus":"<div style=\"background-color:#ff7157\"><h1 style=\"background-color:MediumSeaGreen\">You earned 50 coins</h1><h1 h1 style=\"background-color:Tomato\">but you have recieved a fine of 250 coins</h1><h1 style=\"background-color:Tomato\">Remember, you need to keep going until you have 3000 coins!</h1><img id=\"box\" src=\"img/prizes/250.png\"></img><img id=\"box\" src=\"img/sad/redopenboxsadthumb.png\"></img></div>","key_press":null,"trial_type":"html-keyboard-response","trial_index":65,"time_elapsed":342454,"internal_node_id":"0.0-19.20-1.20"},{"rt":749.684999929741,"stimulus":"<p>Choose a box,</p>","button_pressed":0,"trial_type":"html-button-response","trial_index":66,"time_elapsed":343205,"internal_node_id":"0.0-19.21-0.21"},{"reward":100,"trial_type":"html-keyboard-response","trial_index":67,"time_elapsed":343206,"internal_node_id":"0.0-19.21-1.21"},{"penalty":250,"trial_type":"html-keyboard-response","trial_index":67,"time_elapsed":343206,"internal_node_id":"0.0-19.21-1.21"},{"fined":false,"trial_type":"html-keyboard-response","trial_index":67,"time_elapsed":343206,"internal_node_id":"0.0-19.21-1.21"},{"rt":null,"stimulus":"<div style=\"background-color:#6dce98\"><h1 style=\"background-color:MediumSeaGreen\" >You earned 100 coins! Well done!</h1><div style=\"background-color:#6dce98\"><h1 style=\"background-color:MediumSeaGreen\" >Only 1700 left to go!</h1><img id=\"box\" src=\"img/prizes/coins2.png\"></img><img id=\"box\" src=\"img/empty/blueopenbox.png\"></img></div>","key_press":null,"trial_type":"html-keyboard-response","trial_index":67,"time_elapsed":346208,"internal_node_id":"0.0-19.21-1.21"},{"rt":328.16499995533377,"stimulus":"<p>Choose a box,</p>","button_pressed":1,"trial_type":"html-button-response","trial_index":68,"time_elapsed":346539,"internal_node_id":"0.0-19.22-0.22"},{"reward":100,"trial_type":"html-keyboard-response","trial_index":69,"time_elapsed":346539,"internal_node_id":"0.0-19.22-1.22"},{"penalty":1250,"trial_type":"html-keyboard-response","trial_index":69,"time_elapsed":346539,"internal_node_id":"0.0-19.22-1.22"},{"fined":false,"trial_type":"html-keyboard-response","trial_index":69,"time_elapsed":346539,"internal_node_id":"0.0-19.22-1.22"},{"rt":null,"stimulus":"<div style=\"background-color:#6dce98\"><h1 style=\"background-color:MediumSeaGreen\" >You earned 100 coins! Well done!</h1><div style=\"background-color:#6dce98\"><h1 style=\"background-color:MediumSeaGreen\" >Only 1600 left to go!</h1><img id=\"box\" src=\"img/prizes/coins2.png\"></img><img id=\"box\" src=\"img/empty/greenopenbox.png\"></img></div>","key_press":null,"trial_type":"html-keyboard-response","trial_index":69,"time_elapsed":349540,"internal_node_id":"0.0-19.22-1.22"},{"rt":350.525000016205,"stimulus":"<p>Choose a box,</p>","button_pressed":0,"trial_type":"html-button-response","trial_index":70,"time_elapsed":349893,"internal_node_id":"0.0-19.23-0.23"},{"reward":100,"trial_type":"html-keyboard-response","trial_index":71,"time_elapsed":349894,"internal_node_id":"0.0-19.23-1.23"},{"penalty":250,"trial_type":"html-keyboard-response","trial_index":71,"time_elapsed":349894,"internal_node_id":"0.0-19.23-1.23"},{"fined":false,"trial_type":"html-keyboard-response","trial_index":71,"time_elapsed":349894,"internal_node_id":"0.0-19.23-1.23"},{"rt":null,"stimulus":"<div style=\"background-color:#6dce98\"><h1 style=\"background-color:MediumSeaGreen\" >You earned 100 coins! Well done!</h1><div style=\"background-color:#6dce98\"><h1 style=\"background-color:MediumSeaGreen\" >Only 1500 left to go!</h1><img id=\"box\" src=\"img/prizes/coins2.png\"></img><img id=\"box\" src=\"img/empty/blueopenbox.png\"></img></div>","key_press":null,"trial_type":"html-keyboard-response","trial_index":71,"time_elapsed":352896,"internal_node_id":"0.0-19.23-1.23"},{"rt":350.1149999210611,"stimulus":"<p>Choose a box,</p>","button_pressed":1,"trial_type":"html-button-response","trial_index":72,"time_elapsed":353248,"internal_node_id":"0.0-19.24-0.24"},{"reward":100,"trial_type":"html-keyboard-response","trial_index":73,"time_elapsed":353249,"internal_node_id":"0.0-19.24-1.24"},{"penalty":1250,"trial_type":"html-keyboard-response","trial_index":73,"time_elapsed":353249,"internal_node_id":"0.0-19.24-1.24"},{"fined":false,"trial_type":"html-keyboard-response","trial_index":73,"time_elapsed":353249,"internal_node_id":"0.0-19.24-1.24"},{"rt":null,"stimulus":"<div style=\"background-color:#6dce98\"><h1 style=\"background-color:MediumSeaGreen\" >You earned 100 coins! Well done!</h1><div style=\"background-color:#6dce98\"><h1 style=\"background-color:MediumSeaGreen\" >Only 1400 left to go!</h1><img id=\"box\" src=\"img/prizes/coins2.png\"></img><img id=\"box\" src=\"img/empty/greenopenbox.png\"></img></div>","key_press":null,"trial_type":"html-keyboard-response","trial_index":73,"time_elapsed":356251,"internal_node_id":"0.0-19.24-1.24"},{"rt":514.8749999934807,"stimulus":"<p>Choose a box,</p>","button_pressed":0,"trial_type":"html-button-response","trial_index":74,"time_elapsed":356768,"internal_node_id":"0.0-19.25-0.25"},{"reward":100,"trial_type":"html-keyboard-response","trial_index":75,"time_elapsed":356769,"internal_node_id":"0.0-19.25-1.25"},{"penalty":250,"trial_type":"html-keyboard-response","trial_index":75,"time_elapsed":356769,"internal_node_id":"0.0-19.25-1.25"},{"fined":false,"trial_type":"html-keyboard-response","trial_index":75,"time_elapsed":356769,"internal_node_id":"0.0-19.25-1.25"},{"rt":null,"stimulus":"<div style=\"background-color:#6dce98\"><h1 style=\"background-color:MediumSeaGreen\" >You earned 100 coins! Well done!</h1><div style=\"background-color:#6dce98\"><h1 style=\"background-color:MediumSeaGreen\" >Only 1300 left to go!</h1><img id=\"box\" src=\"img/prizes/coins2.png\"></img><img id=\"box\" src=\"img/empty/blueopenbox.png\"></img></div>","key_press":null,"trial_type":"html-keyboard-response","trial_index":75,"time_elapsed":359771,"internal_node_id":"0.0-19.25-1.25"},{"rt":454.9349999288097,"stimulus":"<p>Choose a box,</p>","button_pressed":1,"trial_type":"html-button-response","trial_index":76,"time_elapsed":360229,"internal_node_id":"0.0-19.26-0.26"},{"reward":100,"trial_type":"html-keyboard-response","trial_index":77,"time_elapsed":360229,"internal_node_id":"0.0-19.26-1.26"},{"penalty":1250,"trial_type":"html-keyboard-response","trial_index":77,"time_elapsed":360229,"internal_node_id":"0.0-19.26-1.26"},{"fined":false,"trial_type":"html-keyboard-response","trial_index":77,"time_elapsed":360229,"internal_node_id":"0.0-19.26-1.26"},{"rt":null,"stimulus":"<div style=\"background-color:#6dce98\"><h1 style=\"background-color:MediumSeaGreen\" >You earned 100 coins! Well done!</h1><div style=\"background-color:#6dce98\"><h1 style=\"background-color:MediumSeaGreen\" >Only 1200 left to go!</h1><img id=\"box\" src=\"img/prizes/coins2.png\"></img><img id=\"box\" src=\"img/empty/greenopenbox.png\"></img></div>","key_press":null,"trial_type":"html-keyboard-response","trial_index":77,"time_elapsed":363233,"internal_node_id":"0.0-19.26-1.26"},{"rt":354.02999992948025,"stimulus":"<p>Choose a box,</p>","button_pressed":0,"trial_type":"html-button-response","trial_index":78,"time_elapsed":363595,"internal_node_id":"0.0-19.27-0.27"},{"reward":100,"trial_type":"html-keyboard-response","trial_index":79,"time_elapsed":363595,"internal_node_id":"0.0-19.27-1.27"},{"penalty":250,"trial_type":"html-keyboard-response","trial_index":79,"time_elapsed":363595,"internal_node_id":"0.0-19.27-1.27"},{"fined":false,"trial_type":"html-keyboard-response","trial_index":79,"time_elapsed":363595,"internal_node_id":"0.0-19.27-1.27"},{"rt":null,"stimulus":"<div style=\"background-color:#6dce98\"><h1 style=\"background-color:MediumSeaGreen\" >You earned 100 coins! Well done!</h1><div style=\"background-color:#6dce98\"><h1 style=\"background-color:MediumSeaGreen\" >Only 1100 left to go!</h1><img id=\"box\" src=\"img/prizes/coins2.png\"></img><img id=\"box\" src=\"img/empty/blueopenbox.png\"></img></div>","key_press":null,"trial_type":"html-keyboard-response","trial_index":79,"time_elapsed":366600,"internal_node_id":"0.0-19.27-1.27"},{"rt":422.4349999567494,"stimulus":"<p>Choose a box,</p>","button_pressed":1,"trial_type":"html-button-response","trial_index":80,"time_elapsed":367025,"internal_node_id":"0.0-19.28-0.28"},{"reward":100,"trial_type":"html-keyboard-response","trial_index":81,"time_elapsed":367025,"internal_node_id":"0.0-19.28-1.28"},{"penalty":1250,"trial_type":"html-keyboard-response","trial_index":81,"time_elapsed":367025,"internal_node_id":"0.0-19.28-1.28"},{"fined":false,"trial_type":"html-keyboard-response","trial_index":81,"time_elapsed":367025,"internal_node_id":"0.0-19.28-1.28"},{"rt":null,"stimulus":"<div style=\"background-color:#6dce98\"><h1 style=\"background-color:MediumSeaGreen\" >You earned 100 coins! Well done!</h1><div style=\"background-color:#6dce98\"><h1 style=\"background-color:MediumSeaGreen\" >Only 1000 left to go!</h1><img id=\"box\" src=\"img/prizes/coins2.png\"></img><img id=\"box\" src=\"img/empty/greenopenbox.png\"></img></div>","key_press":null,"trial_type":"html-keyboard-response","trial_index":81,"time_elapsed":370027,"internal_node_id":"0.0-19.28-1.28"},{"rt":346.19999991264194,"stimulus":"<p>Choose a box,</p>","button_pressed":0,"trial_type":"html-button-response","trial_index":82,"time_elapsed":370375,"internal_node_id":"0.0-19.29-0.29"},{"reward":100,"trial_type":"html-keyboard-response","trial_index":83,"time_elapsed":370375,"internal_node_id":"0.0-19.29-1.29"},{"penalty":250,"trial_type":"html-keyboard-response","trial_index":83,"time_elapsed":370375,"internal_node_id":"0.0-19.29-1.29"},{"fined":true,"trial_type":"html-keyboard-response","trial_index":83,"time_elapsed":370375,"internal_node_id":"0.0-19.29-1.29"},{"rt":null,"stimulus":"<div style=\"background-color:#ff7157\"><h1 style=\"background-color:MediumSeaGreen\">You earned 100 coins</h1><h1 h1 style=\"background-color:Tomato\">but you have recieved a fine of 250 coins</h1><h1 style=\"background-color:Tomato\">Remember, you need to keep going until you have 3000 coins!</h1><img id=\"box\" src=\"img/prizes/250.png\"></img><img id=\"box\" src=\"img/sad/blueopenboxsadthumb.png\"></img></div>","key_press":null,"trial_type":"html-keyboard-response","trial_index":83,"time_elapsed":373377,"internal_node_id":"0.0-19.29-1.29"},{"rt":389.54000000376254,"stimulus":"<p>Choose a box,</p>","button_pressed":1,"trial_type":"html-button-response","trial_index":84,"time_elapsed":373770,"internal_node_id":"0.0-19.30-0.30"},{"reward":100,"trial_type":"html-keyboard-response","trial_index":85,"time_elapsed":373770,"internal_node_id":"0.0-19.30-1.30"},{"penalty":1250,"trial_type":"html-keyboard-response","trial_index":85,"time_elapsed":373770,"internal_node_id":"0.0-19.30-1.30"},{"fined":false,"trial_type":"html-keyboard-response","trial_index":85,"time_elapsed":373770,"internal_node_id":"0.0-19.30-1.30"},{"rt":null,"stimulus":"<div style=\"background-color:#6dce98\"><h1 style=\"background-color:MediumSeaGreen\" >You earned 100 coins! Well done!</h1><div style=\"background-color:#6dce98\"><h1 style=\"background-color:MediumSeaGreen\" >Only 1050 left to go!</h1><img id=\"box\" src=\"img/prizes/coins2.png\"></img><img id=\"box\" src=\"img/empty/greenopenbox.png\"></img></div>","key_press":null,"trial_type":"html-keyboard-response","trial_index":85,"time_elapsed":376772,"internal_node_id":"0.0-19.30-1.30"},{"rt":405.6950000813231,"stimulus":"<p>Choose a box,</p>","button_pressed":0,"trial_type":"html-button-response","trial_index":86,"time_elapsed":377180,"internal_node_id":"0.0-19.31-0.31"},{"reward":100,"trial_type":"html-keyboard-response","trial_index":87,"time_elapsed":377180,"internal_node_id":"0.0-19.31-1.31"},{"penalty":250,"trial_type":"html-keyboard-response","trial_index":87,"time_elapsed":377180,"internal_node_id":"0.0-19.31-1.31"},{"fined":true,"trial_type":"html-keyboard-response","trial_index":87,"time_elapsed":377180,"internal_node_id":"0.0-19.31-1.31"},{"rt":null,"stimulus":"<div style=\"background-color:#ff7157\"><h1 style=\"background-color:MediumSeaGreen\">You earned 100 coins</h1><h1 h1 style=\"background-color:Tomato\">but you have recieved a fine of 250 coins</h1><h1 style=\"background-color:Tomato\">Remember, you need to keep going until you have 3000 coins!</h1><img id=\"box\" src=\"img/prizes/250.png\"></img><img id=\"box\" src=\"img/sad/blueopenboxsadthumb.png\"></img></div>","key_press":null,"trial_type":"html-keyboard-response","trial_index":87,"time_elapsed":380182,"internal_node_id":"0.0-19.31-1.31"},{"rt":619.7150000371039,"stimulus":"<p>Choose a box,</p>","button_pressed":1,"trial_type":"html-button-response","trial_index":88,"time_elapsed":380804,"internal_node_id":"0.0-19.32-0.32"},{"reward":100,"trial_type":"html-keyboard-response","trial_index":89,"time_elapsed":380804,"internal_node_id":"0.0-19.32-1.32"},{"penalty":1250,"trial_type":"html-keyboard-response","trial_index":89,"time_elapsed":380804,"internal_node_id":"0.0-19.32-1.32"},{"fined":false,"trial_type":"html-keyboard-response","trial_index":89,"time_elapsed":380804,"internal_node_id":"0.0-19.32-1.32"},{"rt":null,"stimulus":"<div style=\"background-color:#6dce98\"><h1 style=\"background-color:MediumSeaGreen\" >You earned 100 coins! Well done!</h1><div style=\"background-color:#6dce98\"><h1 style=\"background-color:MediumSeaGreen\" >Only 1100 left to go!</h1><img id=\"box\" src=\"img/prizes/coins2.png\"></img><img id=\"box\" src=\"img/empty/greenopenbox.png\"></img></div>","key_press":null,"trial_type":"html-keyboard-response","trial_index":89,"time_elapsed":383806,"internal_node_id":"0.0-19.32-1.32"},{"rt":741.7399999685585,"stimulus":"<p>Choose a box,</p>","button_pressed":1,"trial_type":"html-button-response","trial_index":90,"time_elapsed":384550,"internal_node_id":"0.0-19.33-0.33"},{"reward":100,"trial_type":"html-keyboard-response","trial_index":91,"time_elapsed":384550,"internal_node_id":"0.0-19.33-1.33"},{"penalty":1250,"trial_type":"html-keyboard-response","trial_index":91,"time_elapsed":384550,"internal_node_id":"0.0-19.33-1.33"},{"fined":false,"trial_type":"html-keyboard-response","trial_index":91,"time_elapsed":384550,"internal_node_id":"0.0-19.33-1.33"},{"rt":null,"stimulus":"<div style=\"background-color:#6dce98\"><h1 style=\"background-color:MediumSeaGreen\" >You earned 100 coins! Well done!</h1><div style=\"background-color:#6dce98\"><h1 style=\"background-color:MediumSeaGreen\" >Only 1000 left to go!</h1><img id=\"box\" src=\"img/prizes/coins2.png\"></img><img id=\"box\" src=\"img/empty/greenopenbox.png\"></img></div>","key_press":null,"trial_type":"html-keyboard-response","trial_index":91,"time_elapsed":387551,"internal_node_id":"0.0-19.33-1.33"},{"rt":259.9400000181049,"stimulus":"<p>Choose a box,</p>","button_pressed":1,"trial_type":"html-button-response","trial_index":92,"time_elapsed":387814,"internal_node_id":"0.0-19.34-0.34"},{"reward":100,"trial_type":"html-keyboard-response","trial_index":93,"time_elapsed":387814,"internal_node_id":"0.0-19.34-1.34"},{"penalty":1250,"trial_type":"html-keyboard-response","trial_index":93,"time_elapsed":387814,"internal_node_id":"0.0-19.34-1.34"},{"fined":true,"trial_type":"html-keyboard-response","trial_index":93,"time_elapsed":387814,"internal_node_id":"0.0-19.34-1.34"},{"rt":null,"stimulus":"<div style=\"background-color:#ff7157\"><h1 style=\"background-color:MediumSeaGreen\">You earned 100 coins</h1><h1 h1 style=\"background-color:Tomato\">but you have recieved a fine of 1250 coins</h1><h1 style=\"background-color:Tomato\">Remember, you need to keep going until you have 3000 coins!</h1><img id=\"box\" src=\"img/prizes/1250.png\"></img><img id=\"box\" src=\"img/sad/greenopenboxsadthumb.png\"></img></div>","key_press":null,"trial_type":"html-keyboard-response","trial_index":93,"time_elapsed":390816,"internal_node_id":"0.0-19.34-1.34"},{"rt":627.9250000370666,"stimulus":"<p>Choose a box,</p>","button_pressed":2,"trial_type":"html-button-response","trial_index":94,"time_elapsed":391446,"internal_node_id":"0.0-19.35-0.35"},{"reward":50,"trial_type":"html-keyboard-response","trial_index":95,"time_elapsed":391446,"internal_node_id":"0.0-19.35-1.35"},{"penalty":50,"trial_type":"html-keyboard-response","trial_index":95,"time_elapsed":391446,"internal_node_id":"0.0-19.35-1.35"},{"fined":true,"trial_type":"html-keyboard-response","trial_index":95,"time_elapsed":391446,"internal_node_id":"0.0-19.35-1.35"},{"rt":null,"stimulus":"<div style=\"background-color:#ff7157\"><h1 style=\"background-color:MediumSeaGreen\">You earned 50 coins</h1><h1 h1 style=\"background-color:Tomato\">but you have recieved a fine of 50 coins</h1><h1 style=\"background-color:Tomato\">Remember, you need to keep going until you have 3000 coins!</h1><img id=\"box\" src=\"img/prizes/50.png\"></img><img id=\"box\" src=\"img/sad/purpleopenboxsadthumb.png\"></img></div>","key_press":null,"trial_type":"html-keyboard-response","trial_index":95,"time_elapsed":394448,"internal_node_id":"0.0-19.35-1.35"},{"rt":468.16000004764646,"stimulus":"<p>Choose a box,</p>","button_pressed":3,"trial_type":"html-button-response","trial_index":96,"time_elapsed":394919,"internal_node_id":"0.0-19.36-0.36"},{"reward":50,"trial_type":"html-keyboard-response","trial_index":97,"time_elapsed":394922,"internal_node_id":"0.0-19.36-1.36"},{"penalty":250,"trial_type":"html-keyboard-response","trial_index":97,"time_elapsed":394922,"internal_node_id":"0.0-19.36-1.36"},{"fined":false,"trial_type":"html-keyboard-response","trial_index":97,"time_elapsed":394922,"internal_node_id":"0.0-19.36-1.36"},{"rt":null,"stimulus":"<div style=\"background-color:#6dce98\"><h1 style=\"background-color:MediumSeaGreen\" >You earned 50 coins! Well done!</h1><div style=\"background-color:#6dce98\"><h1 style=\"background-color:MediumSeaGreen\" >Only 2100 left to go!</h1><img id=\"box\" src=\"img/prizes/coins.png\"></img><img id=\"box\" src=\"img/empty/redopenbox.png\"></img></div>","key_press":null,"trial_type":"html-keyboard-response","trial_index":97,"time_elapsed":397924,"internal_node_id":"0.0-19.36-1.36"},{"rt":356.21500003617257,"stimulus":"<p>Choose a box,</p>","button_pressed":1,"trial_type":"html-button-response","trial_index":98,"time_elapsed":398284,"internal_node_id":"0.0-19.37-0.37"},{"reward":100,"trial_type":"html-keyboard-response","trial_index":99,"time_elapsed":398284,"internal_node_id":"0.0-19.37-1.37"},{"penalty":1250,"trial_type":"html-keyboard-response","trial_index":99,"time_elapsed":398284,"internal_node_id":"0.0-19.37-1.37"},{"fined":false,"trial_type":"html-keyboard-response","trial_index":99,"time_elapsed":398284,"internal_node_id":"0.0-19.37-1.37"},{"rt":null,"stimulus":"<div style=\"background-color:#6dce98\"><h1 style=\"background-color:MediumSeaGreen\" >You earned 100 coins! Well done!</h1><div style=\"background-color:#6dce98\"><h1 style=\"background-color:MediumSeaGreen\" >Only 2000 left to go!</h1><img id=\"box\" src=\"img/prizes/coins2.png\"></img><img id=\"box\" src=\"img/empty/greenopenbox.png\"></img></div>","key_press":null,"trial_type":"html-keyboard-response","trial_index":99,"time_elapsed":401285,"internal_node_id":"0.0-19.37-1.37"},{"rt":403.8650000002235,"stimulus":"<p>Choose a box,</p>","button_pressed":0,"trial_type":"html-button-response","trial_index":100,"time_elapsed":401691,"internal_node_id":"0.0-19.38-0.38"},{"reward":100,"trial_type":"html-keyboard-response","trial_index":101,"time_elapsed":401692,"internal_node_id":"0.0-19.38-1.38"},{"penalty":250,"trial_type":"html-keyboard-response","trial_index":101,"time_elapsed":401692,"internal_node_id":"0.0-19.38-1.38"},{"fined":false,"trial_type":"html-keyboard-response","trial_index":101,"time_elapsed":401692,"internal_node_id":"0.0-19.38-1.38"},{"rt":null,"stimulus":"<div style=\"background-color:#6dce98\"><h1 style=\"background-color:MediumSeaGreen\" >You earned 100 coins! Well done!</h1><div style=\"background-color:#6dce98\"><h1 style=\"background-color:MediumSeaGreen\" >Only 1900 left to go!</h1><img id=\"box\" src=\"img/prizes/coins2.png\"></img><img id=\"box\" src=\"img/empty/blueopenbox.png\"></img></div>","key_press":null,"trial_type":"html-keyboard-response","trial_index":101,"time_elapsed":404693,"internal_node_id":"0.0-19.38-1.38"},{"rt":355.9900000691414,"stimulus":"<p>Choose a box,</p>","button_pressed":1,"trial_type":"html-button-response","trial_index":102,"time_elapsed":405052,"internal_node_id":"0.0-19.39-0.39"},{"reward":100,"trial_type":"html-keyboard-response","trial_index":103,"time_elapsed":405052,"internal_node_id":"0.0-19.39-1.39"},{"penalty":1250,"trial_type":"html-keyboard-response","trial_index":103,"time_elapsed":405052,"internal_node_id":"0.0-19.39-1.39"},{"fined":false,"trial_type":"html-keyboard-response","trial_index":103,"time_elapsed":405052,"internal_node_id":"0.0-19.39-1.39"},{"rt":null,"stimulus":"<div style=\"background-color:#6dce98\"><h1 style=\"background-color:MediumSeaGreen\" >You earned 100 coins! Well done!</h1><div style=\"background-color:#6dce98\"><h1 style=\"background-color:MediumSeaGreen\" >Only 1800 left to go!</h1><img id=\"box\" src=\"img/prizes/coins2.png\"></img><img id=\"box\" src=\"img/empty/greenopenbox.png\"></img></div>","key_press":null,"trial_type":"html-keyboard-response","trial_index":103,"time_elapsed":408054,"internal_node_id":"0.0-19.39-1.39"},{"rt":383.339999942109,"stimulus":"<p>Choose a box,</p>","button_pressed":0,"trial_type":"html-button-response","trial_index":104,"time_elapsed":408439,"internal_node_id":"0.0-19.40-0.40"},{"reward":100,"trial_type":"html-keyboard-response","trial_index":105,"time_elapsed":408439,"internal_node_id":"0.0-19.40-1.40"},{"penalty":250,"trial_type":"html-keyboard-response","trial_index":105,"time_elapsed":408439,"internal_node_id":"0.0-19.40-1.40"},{"fined":true,"trial_type":"html-keyboard-response","trial_index":105,"time_elapsed":408439,"internal_node_id":"0.0-19.40-1.40"},{"rt":null,"stimulus":"<div style=\"background-color:#ff7157\"><h1 style=\"background-color:MediumSeaGreen\">You earned 100 coins</h1><h1 h1 style=\"background-color:Tomato\">but you have recieved a fine of 250 coins</h1><h1 style=\"background-color:Tomato\">Remember, you need to keep going until you have 3000 coins!</h1><img id=\"box\" src=\"img/prizes/250.png\"></img><img id=\"box\" src=\"img/sad/blueopenboxsadthumb.png\"></img></div>","key_press":null,"trial_type":"html-keyboard-response","trial_index":105,"time_elapsed":411441,"internal_node_id":"0.0-19.40-1.40"},{"rt":440.09000004734844,"stimulus":"<p>Choose a box,</p>","button_pressed":1,"trial_type":"html-button-response","trial_index":106,"time_elapsed":411884,"internal_node_id":"0.0-19.41-0.41"},{"reward":100,"trial_type":"html-keyboard-response","trial_index":107,"time_elapsed":411884,"internal_node_id":"0.0-19.41-1.41"},{"penalty":1250,"trial_type":"html-keyboard-response","trial_index":107,"time_elapsed":411884,"internal_node_id":"0.0-19.41-1.41"},{"fined":false,"trial_type":"html-keyboard-response","trial_index":107,"time_elapsed":411884,"internal_node_id":"0.0-19.41-1.41"},{"rt":null,"stimulus":"<div style=\"background-color:#6dce98\"><h1 style=\"background-color:MediumSeaGreen\" >You earned 100 coins! Well done!</h1><div style=\"background-color:#6dce98\"><h1 style=\"background-color:MediumSeaGreen\" >Only 1850 left to go!</h1><img id=\"box\" src=\"img/prizes/coins2.png\"></img><img id=\"box\" src=\"img/empty/greenopenbox.png\"></img></div>","key_press":null,"trial_type":"html-keyboard-response","trial_index":107,"time_elapsed":414888,"internal_node_id":"0.0-19.41-1.41"},{"rt":423.4550000401214,"stimulus":"<p>Choose a box,</p>","button_pressed":1,"trial_type":"html-button-response","trial_index":108,"time_elapsed":415315,"internal_node_id":"0.0-19.42-0.42"},{"reward":100,"trial_type":"html-keyboard-response","trial_index":109,"time_elapsed":415315,"internal_node_id":"0.0-19.42-1.42"},{"penalty":1250,"trial_type":"html-keyboard-response","trial_index":109,"time_elapsed":415315,"internal_node_id":"0.0-19.42-1.42"},{"fined":false,"trial_type":"html-keyboard-response","trial_index":109,"time_elapsed":415315,"internal_node_id":"0.0-19.42-1.42"},{"rt":null,"stimulus":"<div style=\"background-color:#6dce98\"><h1 style=\"background-color:MediumSeaGreen\" >You earned 100 coins! Well done!</h1><div style=\"background-color:#6dce98\"><h1 style=\"background-color:MediumSeaGreen\" >Only 1750 left to go!</h1><img id=\"box\" src=\"img/prizes/coins2.png\"></img><img id=\"box\" src=\"img/empty/greenopenbox.png\"></img></div>","key_press":null,"trial_type":"html-keyboard-response","trial_index":109,"time_elapsed":418321,"internal_node_id":"0.0-19.42-1.42"},{"rt":416.7000000597909,"stimulus":"<p>Choose a box,</p>","button_pressed":0,"trial_type":"html-button-response","trial_index":110,"time_elapsed":418740,"internal_node_id":"0.0-19.43-0.43"},{"reward":100,"trial_type":"html-keyboard-response","trial_index":111,"time_elapsed":418740,"internal_node_id":"0.0-19.43-1.43"},{"penalty":250,"trial_type":"html-keyboard-response","trial_index":111,"time_elapsed":418740,"internal_node_id":"0.0-19.43-1.43"},{"fined":true,"trial_type":"html-keyboard-response","trial_index":111,"time_elapsed":418740,"internal_node_id":"0.0-19.43-1.43"},{"rt":null,"stimulus":"<div style=\"background-color:#ff7157\"><h1 style=\"background-color:MediumSeaGreen\">You earned 100 coins</h1><h1 h1 style=\"background-color:Tomato\">but you have recieved a fine of 250 coins</h1><h1 style=\"background-color:Tomato\">Remember, you need to keep going until you have 3000 coins!</h1><img id=\"box\" src=\"img/prizes/250.png\"></img><img id=\"box\" src=\"img/sad/blueopenboxsadthumb.png\"></img></div>","key_press":null,"trial_type":"html-keyboard-response","trial_index":111,"time_elapsed":421752,"internal_node_id":"0.0-19.43-1.43"},{"rt":547.0050000585616,"stimulus":"<p>Choose a box,</p>","button_pressed":1,"trial_type":"html-button-response","trial_index":112,"time_elapsed":422301,"internal_node_id":"0.0-19.44-0.44"},{"reward":100,"trial_type":"html-keyboard-response","trial_index":113,"time_elapsed":422301,"internal_node_id":"0.0-19.44-1.44"},{"penalty":1250,"trial_type":"html-keyboard-response","trial_index":113,"time_elapsed":422301,"internal_node_id":"0.0-19.44-1.44"},{"fined":false,"trial_type":"html-keyboard-response","trial_index":113,"time_elapsed":422301,"internal_node_id":"0.0-19.44-1.44"},{"rt":null,"stimulus":"<div style=\"background-color:#6dce98\"><h1 style=\"background-color:MediumSeaGreen\" >You earned 100 coins! Well done!</h1><div style=\"background-color:#6dce98\"><h1 style=\"background-color:MediumSeaGreen\" >Only 1800 left to go!</h1><img id=\"box\" src=\"img/prizes/coins2.png\"></img><img id=\"box\" src=\"img/empty/greenopenbox.png\"></img></div>","key_press":null,"trial_type":"html-keyboard-response","trial_index":113,"time_elapsed":425310,"internal_node_id":"0.0-19.44-1.44"},{"rt":612.8449999960139,"stimulus":"<p>Choose a box,</p>","button_pressed":1,"trial_type":"html-button-response","trial_index":114,"time_elapsed":425925,"internal_node_id":"0.0-19.45-0.45"},{"reward":100,"trial_type":"html-keyboard-response","trial_index":115,"time_elapsed":425926,"internal_node_id":"0.0-19.45-1.45"},{"penalty":1250,"trial_type":"html-keyboard-response","trial_index":115,"time_elapsed":425926,"internal_node_id":"0.0-19.45-1.45"},{"fined":false,"trial_type":"html-keyboard-response","trial_index":115,"time_elapsed":425926,"internal_node_id":"0.0-19.45-1.45"},{"rt":null,"stimulus":"<div style=\"background-color:#6dce98\"><h1 style=\"background-color:MediumSeaGreen\" >You earned 100 coins! Well done!</h1><div style=\"background-color:#6dce98\"><h1 style=\"background-color:MediumSeaGreen\" >Only 1700 left to go!</h1><img id=\"box\" src=\"img/prizes/coins2.png\"></img><img id=\"box\" src=\"img/empty/greenopenbox.png\"></img></div>","key_press":null,"trial_type":"html-keyboard-response","trial_index":115,"time_elapsed":428933,"internal_node_id":"0.0-19.45-1.45"},{"rt":445.93500008340925,"stimulus":"<p>Choose a box,</p>","button_pressed":1,"trial_type":"html-button-response","trial_index":116,"time_elapsed":429382,"internal_node_id":"0.0-19.46-0.46"},{"reward":100,"trial_type":"html-keyboard-response","trial_index":117,"time_elapsed":429382,"internal_node_id":"0.0-19.46-1.46"},{"penalty":1250,"trial_type":"html-keyboard-response","trial_index":117,"time_elapsed":429382,"internal_node_id":"0.0-19.46-1.46"},{"fined":false,"trial_type":"html-keyboard-response","trial_index":117,"time_elapsed":429382,"internal_node_id":"0.0-19.46-1.46"},{"rt":null,"stimulus":"<div style=\"background-color:#6dce98\"><h1 style=\"background-color:MediumSeaGreen\" >You earned 100 coins! Well done!</h1><div style=\"background-color:#6dce98\"><h1 style=\"background-color:MediumSeaGreen\" >Only 1600 left to go!</h1><img id=\"box\" src=\"img/prizes/coins2.png\"></img><img id=\"box\" src=\"img/empty/greenopenbox.png\"></img></div>","key_press":null,"trial_type":"html-keyboard-response","trial_index":117,"time_elapsed":432392,"internal_node_id":"0.0-19.46-1.46"},{"rt":540.7800000393763,"stimulus":"<p>Choose a box,</p>","button_pressed":0,"trial_type":"html-button-response","trial_index":118,"time_elapsed":432934,"internal_node_id":"0.0-19.47-0.47"},{"reward":100,"trial_type":"html-keyboard-response","trial_index":119,"time_elapsed":432935,"internal_node_id":"0.0-19.47-1.47"},{"penalty":250,"trial_type":"html-keyboard-response","trial_index":119,"time_elapsed":432935,"internal_node_id":"0.0-19.47-1.47"},{"fined":true,"trial_type":"html-keyboard-response","trial_index":119,"time_elapsed":432935,"internal_node_id":"0.0-19.47-1.47"},{"rt":null,"stimulus":"<div style=\"background-color:#ff7157\"><h1 style=\"background-color:MediumSeaGreen\">You earned 100 coins</h1><h1 h1 style=\"background-color:Tomato\">but you have recieved a fine of 250 coins</h1><h1 style=\"background-color:Tomato\">Remember, you need to keep going until you have 3000 coins!</h1><img id=\"box\" src=\"img/prizes/250.png\"></img><img id=\"box\" src=\"img/sad/blueopenboxsadthumb.png\"></img></div>","key_press":null,"trial_type":"html-keyboard-response","trial_index":119,"time_elapsed":435943,"internal_node_id":"0.0-19.47-1.47"},{"rt":586.2549999728799,"stimulus":"<p>Choose a box,</p>","button_pressed":1,"trial_type":"html-button-response","trial_index":120,"time_elapsed":436532,"internal_node_id":"0.0-19.48-0.48"},{"reward":100,"trial_type":"html-keyboard-response","trial_index":121,"time_elapsed":436533,"internal_node_id":"0.0-19.48-1.48"},{"penalty":1250,"trial_type":"html-keyboard-response","trial_index":121,"time_elapsed":436533,"internal_node_id":"0.0-19.48-1.48"},{"fined":true,"trial_type":"html-keyboard-response","trial_index":121,"time_elapsed":436533,"internal_node_id":"0.0-19.48-1.48"},{"rt":null,"stimulus":"<div style=\"background-color:#ff7157\"><h1 style=\"background-color:MediumSeaGreen\">You earned 100 coins</h1><h1 h1 style=\"background-color:Tomato\">but you have recieved a fine of 1250 coins</h1><h1 style=\"background-color:Tomato\">Remember, you need to keep going until you have 3000 coins!</h1><img id=\"box\" src=\"img/prizes/1250.png\"></img><img id=\"box\" src=\"img/sad/greenopenboxsadthumb.png\"></img></div>","key_press":null,"trial_type":"html-keyboard-response","trial_index":121,"time_elapsed":439538,"internal_node_id":"0.0-19.48-1.48"},{"rt":789.8800000548363,"stimulus":"<p>Choose a box,</p>","button_pressed":2,"trial_type":"html-button-response","trial_index":122,"time_elapsed":440331,"internal_node_id":"0.0-19.49-0.49"},{"reward":50,"trial_type":"html-keyboard-response","trial_index":123,"time_elapsed":440332,"internal_node_id":"0.0-19.49-1.49"},{"penalty":50,"trial_type":"html-keyboard-response","trial_index":123,"time_elapsed":440332,"internal_node_id":"0.0-19.49-1.49"},{"fined":false,"trial_type":"html-keyboard-response","trial_index":123,"time_elapsed":440332,"internal_node_id":"0.0-19.49-1.49"},{"rt":null,"stimulus":"<div style=\"background-color:#6dce98\"><h1 style=\"background-color:MediumSeaGreen\" >You earned 50 coins! Well done!</h1><div style=\"background-color:#6dce98\"><h1 style=\"background-color:MediumSeaGreen\" >Only 2850 left to go!</h1><img id=\"box\" src=\"img/prizes/coins.png\"></img><img id=\"box\" src=\"img/empty/purpleopenbox.png\"></img></div>","key_press":null,"trial_type":"html-keyboard-response","trial_index":123,"time_elapsed":443343,"internal_node_id":"0.0-19.49-1.49"},{"rt":1092.1099999686703,"stimulus":"<p>Choose a box,</p>","button_pressed":2,"trial_type":"html-button-response","trial_index":124,"time_elapsed":444441,"internal_node_id":"0.0-19.50-0.50"},{"reward":50,"trial_type":"html-keyboard-response","trial_index":125,"time_elapsed":444442,"internal_node_id":"0.0-19.50-1.50"},{"penalty":50,"trial_type":"html-keyboard-response","trial_index":125,"time_elapsed":444442,"internal_node_id":"0.0-19.50-1.50"},{"fined":true,"trial_type":"html-keyboard-response","trial_index":125,"time_elapsed":444442,"internal_node_id":"0.0-19.50-1.50"},{"rt":null,"stimulus":"<div style=\"background-color:#ff7157\"><h1 style=\"background-color:MediumSeaGreen\">You earned 50 coins</h1><h1 h1 style=\"background-color:Tomato\">but you have recieved a fine of 50 coins</h1><h1 style=\"background-color:Tomato\">Remember, you need to keep going until you have 3000 coins!</h1><img id=\"box\" src=\"img/prizes/50.png\"></img><img id=\"box\" src=\"img/sad/purpleopenboxsadthumb.png\"></img></div>","key_press":null,"trial_type":"html-keyboard-response","trial_index":125,"time_elapsed":447447,"internal_node_id":"0.0-19.50-1.50"},{"rt":502.27499997708946,"stimulus":"<p>Choose a box,</p>","button_pressed":1,"trial_type":"html-button-response","trial_index":126,"time_elapsed":447951,"internal_node_id":"0.0-19.51-0.51"},{"reward":100,"trial_type":"html-keyboard-response","trial_index":127,"time_elapsed":447951,"internal_node_id":"0.0-19.51-1.51"},{"penalty":1250,"trial_type":"html-keyboard-response","trial_index":127,"time_elapsed":447951,"internal_node_id":"0.0-19.51-1.51"},{"fined":false,"trial_type":"html-keyboard-response","trial_index":127,"time_elapsed":447951,"internal_node_id":"0.0-19.51-1.51"},{"rt":null,"stimulus":"<div style=\"background-color:#6dce98\"><h1 style=\"background-color:MediumSeaGreen\" >You earned 100 coins! Well done!</h1><div style=\"background-color:#6dce98\"><h1 style=\"background-color:MediumSeaGreen\" >Only 2750 left to go!</h1><img id=\"box\" src=\"img/prizes/coins2.png\"></img><img id=\"box\" src=\"img/empty/greenopenbox.png\"></img></div>","key_press":null,"trial_type":"html-keyboard-response","trial_index":127,"time_elapsed":450961,"internal_node_id":"0.0-19.51-1.51"},{"rt":404.31000001262873,"stimulus":"<p>Choose a box,</p>","button_pressed":1,"trial_type":"html-button-response","trial_index":128,"time_elapsed":451367,"internal_node_id":"0.0-19.52-0.52"},{"reward":100,"trial_type":"html-keyboard-response","trial_index":129,"time_elapsed":451368,"internal_node_id":"0.0-19.52-1.52"},{"penalty":1250,"trial_type":"html-keyboard-response","trial_index":129,"time_elapsed":451368,"internal_node_id":"0.0-19.52-1.52"},{"fined":false,"trial_type":"html-keyboard-response","trial_index":129,"time_elapsed":451368,"internal_node_id":"0.0-19.52-1.52"},{"rt":null,"stimulus":"<div style=\"background-color:#6dce98\"><h1 style=\"background-color:MediumSeaGreen\" >You earned 100 coins! Well done!</h1><div style=\"background-color:#6dce98\"><h1 style=\"background-color:MediumSeaGreen\" >Only 2650 left to go!</h1><img id=\"box\" src=\"img/prizes/coins2.png\"></img><img id=\"box\" src=\"img/empty/greenopenbox.png\"></img></div>","key_press":null,"trial_type":"html-keyboard-response","trial_index":129,"time_elapsed":454377,"internal_node_id":"0.0-19.52-1.52"},{"rt":675.7650000508875,"stimulus":"<p>Choose a box,</p>","button_pressed":1,"trial_type":"html-button-response","trial_index":130,"time_elapsed":455055,"internal_node_id":"0.0-19.53-0.53"},{"reward":100,"trial_type":"html-keyboard-response","trial_index":131,"time_elapsed":455056,"internal_node_id":"0.0-19.53-1.53"},{"penalty":1250,"trial_type":"html-keyboard-response","trial_index":131,"time_elapsed":455056,"internal_node_id":"0.0-19.53-1.53"},{"fined":false,"trial_type":"html-keyboard-response","trial_index":131,"time_elapsed":455056,"internal_node_id":"0.0-19.53-1.53"},{"rt":null,"stimulus":"<div style=\"background-color:#6dce98\"><h1 style=\"background-color:MediumSeaGreen\" >You earned 100 coins! Well done!</h1><div style=\"background-color:#6dce98\"><h1 style=\"background-color:MediumSeaGreen\" >Only 2550 left to go!</h1><img id=\"box\" src=\"img/prizes/coins2.png\"></img><img id=\"box\" src=\"img/empty/greenopenbox.png\"></img></div>","key_press":null,"trial_type":"html-keyboard-response","trial_index":131,"time_elapsed":458061,"internal_node_id":"0.0-19.53-1.53"},{"rt":578.8750000065193,"stimulus":"<p>Choose a box,</p>","button_pressed":3,"trial_type":"html-button-response","trial_index":132,"time_elapsed":458643,"internal_node_id":"0.0-19.54-0.54"},{"reward":50,"trial_type":"html-keyboard-response","trial_index":133,"time_elapsed":458643,"internal_node_id":"0.0-19.54-1.54"},{"penalty":250,"trial_type":"html-keyboard-response","trial_index":133,"time_elapsed":458643,"internal_node_id":"0.0-19.54-1.54"},{"fined":true,"trial_type":"html-keyboard-response","trial_index":133,"time_elapsed":458643,"internal_node_id":"0.0-19.54-1.54"},{"rt":null,"stimulus":"<div style=\"background-color:#ff7157\"><h1 style=\"background-color:MediumSeaGreen\">You earned 50 coins</h1><h1 h1 style=\"background-color:Tomato\">but you have recieved a fine of 250 coins</h1><h1 style=\"background-color:Tomato\">Remember, you need to keep going until you have 3000 coins!</h1><img id=\"box\" src=\"img/prizes/250.png\"></img><img id=\"box\" src=\"img/sad/redopenboxsadthumb.png\"></img></div>","key_press":null,"trial_type":"html-keyboard-response","trial_index":133,"time_elapsed":461646,"internal_node_id":"0.0-19.54-1.54"},{"rt":480.94499995931983,"stimulus":"<p>Choose a box,</p>","button_pressed":1,"trial_type":"html-button-response","trial_index":134,"time_elapsed":462130,"internal_node_id":"0.0-19.55-0.55"},{"reward":100,"trial_type":"html-keyboard-response","trial_index":135,"time_elapsed":462130,"internal_node_id":"0.0-19.55-1.55"},{"penalty":1250,"trial_type":"html-keyboard-response","trial_index":135,"time_elapsed":462130,"internal_node_id":"0.0-19.55-1.55"},{"fined":false,"trial_type":"html-keyboard-response","trial_index":135,"time_elapsed":462130,"internal_node_id":"0.0-19.55-1.55"},{"rt":null,"stimulus":"<div style=\"background-color:#6dce98\"><h1 style=\"background-color:MediumSeaGreen\" >You earned 100 coins! Well done!</h1><div style=\"background-color:#6dce98\"><h1 style=\"background-color:MediumSeaGreen\" >Only 2650 left to go!</h1><img id=\"box\" src=\"img/prizes/coins2.png\"></img><img id=\"box\" src=\"img/empty/greenopenbox.png\"></img></div>","key_press":null,"trial_type":"html-keyboard-response","trial_index":135,"time_elapsed":465131,"internal_node_id":"0.0-19.55-1.55"},{"rt":1690.7599999103695,"stimulus":"<p>Choose a box,</p>","button_pressed":1,"trial_type":"html-button-response","trial_index":136,"time_elapsed":466825,"internal_node_id":"0.0-19.56-0.56"},{"reward":100,"trial_type":"html-keyboard-response","trial_index":137,"time_elapsed":466825,"internal_node_id":"0.0-19.56-1.56"},{"penalty":1250,"trial_type":"html-keyboard-response","trial_index":137,"time_elapsed":466825,"internal_node_id":"0.0-19.56-1.56"},{"fined":true,"trial_type":"html-keyboard-response","trial_index":137,"time_elapsed":466825,"internal_node_id":"0.0-19.56-1.56"},{"rt":null,"stimulus":"<div style=\"background-color:#ff7157\"><h1 style=\"background-color:MediumSeaGreen\">You earned 100 coins</h1><h1 h1 style=\"background-color:Tomato\">but you have recieved a fine of 1250 coins</h1><h1 style=\"background-color:Tomato\">Remember, you need to keep going until you have 3000 coins!</h1><img id=\"box\" src=\"img/prizes/1250.png\"></img><img id=\"box\" src=\"img/sad/greenopenboxsadthumb.png\"></img></div>","key_press":null,"trial_type":"html-keyboard-response","trial_index":137,"time_elapsed":469830,"internal_node_id":"0.0-19.56-1.56"},{"rt":1787.4650000594556,"stimulus":"<p>Choose a box,</p>","button_pressed":1,"trial_type":"html-button-response","trial_index":138,"time_elapsed":471619,"internal_node_id":"0.0-19.57-0.57"},{"reward":100,"trial_type":"html-keyboard-response","trial_index":139,"time_elapsed":471620,"internal_node_id":"0.0-19.57-1.57"},{"penalty":1250,"trial_type":"html-keyboard-response","trial_index":139,"time_elapsed":471620,"internal_node_id":"0.0-19.57-1.57"},{"fined":false,"trial_type":"html-keyboard-response","trial_index":139,"time_elapsed":471620,"internal_node_id":"0.0-19.57-1.57"},{"rt":null,"stimulus":"<div style=\"background-color:#6dce98\"><h1 style=\"background-color:MediumSeaGreen\" >You earned 100 coins! Well done!</h1><div style=\"background-color:#6dce98\"><h1 style=\"background-color:MediumSeaGreen\" >Only 3700 left to go!</h1><img id=\"box\" src=\"img/prizes/coins2.png\"></img><img id=\"box\" src=\"img/empty/greenopenbox.png\"></img></div>","key_press":null,"trial_type":"html-keyboard-response","trial_index":139,"time_elapsed":474623,"internal_node_id":"0.0-19.57-1.57"},{"rt":447.734999936074,"stimulus":"<p>Choose a box,</p>","button_pressed":1,"trial_type":"html-button-response","trial_index":140,"time_elapsed":475072,"internal_node_id":"0.0-19.58-0.58"},{"reward":100,"trial_type":"html-keyboard-response","trial_index":141,"time_elapsed":475073,"internal_node_id":"0.0-19.58-1.58"},{"penalty":1250,"trial_type":"html-keyboard-response","trial_index":141,"time_elapsed":475073,"internal_node_id":"0.0-19.58-1.58"},{"fined":false,"trial_type":"html-keyboard-response","trial_index":141,"time_elapsed":475073,"internal_node_id":"0.0-19.58-1.58"},{"rt":null,"stimulus":"<div style=\"background-color:#6dce98\"><h1 style=\"background-color:MediumSeaGreen\" >You earned 100 coins! Well done!</h1><div style=\"background-color:#6dce98\"><h1 style=\"background-color:MediumSeaGreen\" >Only 3600 left to go!</h1><img id=\"box\" src=\"img/prizes/coins2.png\"></img><img id=\"box\" src=\"img/empty/greenopenbox.png\"></img></div>","key_press":null,"trial_type":"html-keyboard-response","trial_index":141,"time_elapsed":478081,"internal_node_id":"0.0-19.58-1.58"},{"rt":463.14500004518777,"stimulus":"<p>Choose a box,</p>","button_pressed":1,"trial_type":"html-button-response","trial_index":142,"time_elapsed":478546,"internal_node_id":"0.0-19.59-0.59"},{"reward":100,"trial_type":"html-keyboard-response","trial_index":143,"time_elapsed":478547,"internal_node_id":"0.0-19.59-1.59"},{"penalty":1250,"trial_type":"html-keyboard-response","trial_index":143,"time_elapsed":478547,"internal_node_id":"0.0-19.59-1.59"},{"fined":false,"trial_type":"html-keyboard-response","trial_index":143,"time_elapsed":478547,"internal_node_id":"0.0-19.59-1.59"},{"rt":null,"stimulus":"<div style=\"background-color:#6dce98\"><h1 style=\"background-color:MediumSeaGreen\" >You earned 100 coins! Well done!</h1><div style=\"background-color:#6dce98\"><h1 style=\"background-color:MediumSeaGreen\" >Only 3500 left to go!</h1><img id=\"box\" src=\"img/prizes/coins2.png\"></img><img id=\"box\" src=\"img/empty/greenopenbox.png\"></img></div>","key_press":null,"trial_type":"html-keyboard-response","trial_index":143,"time_elapsed":481555,"internal_node_id":"0.0-19.59-1.59"},{"rt":359.56499993335456,"stimulus":"<p>Choose a box,</p>","button_pressed":1,"trial_type":"html-button-response","trial_index":144,"time_elapsed":481917,"internal_node_id":"0.0-19.60-0.60"},{"reward":100,"trial_type":"html-keyboard-response","trial_index":145,"time_elapsed":481917,"internal_node_id":"0.0-19.60-1.60"},{"penalty":1250,"trial_type":"html-keyboard-response","trial_index":145,"time_elapsed":481917,"internal_node_id":"0.0-19.60-1.60"},{"fined":false,"trial_type":"html-keyboard-response","trial_index":145,"time_elapsed":481917,"internal_node_id":"0.0-19.60-1.60"},{"rt":null,"stimulus":"<div style=\"background-color:#6dce98\"><h1 style=\"background-color:MediumSeaGreen\" >You earned 100 coins! Well done!</h1><div style=\"background-color:#6dce98\"><h1 style=\"background-color:MediumSeaGreen\" >Only 3400 left to go!</h1><img id=\"box\" src=\"img/prizes/coins2.png\"></img><img id=\"box\" src=\"img/empty/greenopenbox.png\"></img></div>","key_press":null,"trial_type":"html-keyboard-response","trial_index":145,"time_elapsed":484921,"internal_node_id":"0.0-19.60-1.60"},{"rt":358.0099999671802,"stimulus":"<p>Choose a box,</p>","button_pressed":1,"trial_type":"html-button-response","trial_index":146,"time_elapsed":485281,"internal_node_id":"0.0-19.61-0.61"},{"reward":100,"trial_type":"html-keyboard-response","trial_index":147,"time_elapsed":485282,"internal_node_id":"0.0-19.61-1.61"},{"penalty":1250,"trial_type":"html-keyboard-response","trial_index":147,"time_elapsed":485282,"internal_node_id":"0.0-19.61-1.61"},{"fined":false,"trial_type":"html-keyboard-response","trial_index":147,"time_elapsed":485282,"internal_node_id":"0.0-19.61-1.61"},{"rt":null,"stimulus":"<div style=\"background-color:#6dce98\"><h1 style=\"background-color:MediumSeaGreen\" >You earned 100 coins! Well done!</h1><div style=\"background-color:#6dce98\"><h1 style=\"background-color:MediumSeaGreen\" >Only 3300 left to go!</h1><img id=\"box\" src=\"img/prizes/coins2.png\"></img><img id=\"box\" src=\"img/empty/greenopenbox.png\"></img></div>","key_press":null,"trial_type":"html-keyboard-response","trial_index":147,"time_elapsed":488287,"internal_node_id":"0.0-19.61-1.61"},{"rt":242.10999999195337,"stimulus":"<p>Choose a box,</p>","button_pressed":1,"trial_type":"html-button-response","trial_index":148,"time_elapsed":488532,"internal_node_id":"0.0-19.62-0.62"},{"reward":100,"trial_type":"html-keyboard-response","trial_index":149,"time_elapsed":488532,"internal_node_id":"0.0-19.62-1.62"},{"penalty":1250,"trial_type":"html-keyboard-response","trial_index":149,"time_elapsed":488532,"internal_node_id":"0.0-19.62-1.62"},{"fined":false,"trial_type":"html-keyboard-response","trial_index":149,"time_elapsed":488532,"internal_node_id":"0.0-19.62-1.62"},{"rt":null,"stimulus":"<div style=\"background-color:#6dce98\"><h1 style=\"background-color:MediumSeaGreen\" >You earned 100 coins! Well done!</h1><div style=\"background-color:#6dce98\"><h1 style=\"background-color:MediumSeaGreen\" >Only 3200 left to go!</h1><img id=\"box\" src=\"img/prizes/coins2.png\"></img><img id=\"box\" src=\"img/empty/greenopenbox.png\"></img></div>","key_press":null,"trial_type":"html-keyboard-response","trial_index":149,"time_elapsed":491536,"internal_node_id":"0.0-19.62-1.62"},{"rt":414.40000000875443,"stimulus":"<p>Choose a box,</p>","button_pressed":1,"trial_type":"html-button-response","trial_index":150,"time_elapsed":491953,"internal_node_id":"0.0-19.63-0.63"},{"reward":100,"trial_type":"html-keyboard-response","trial_index":151,"time_elapsed":491953,"internal_node_id":"0.0-19.63-1.63"},{"penalty":1250,"trial_type":"html-keyboard-response","trial_index":151,"time_elapsed":491953,"internal_node_id":"0.0-19.63-1.63"},{"fined":false,"trial_type":"html-keyboard-response","trial_index":151,"time_elapsed":491953,"internal_node_id":"0.0-19.63-1.63"},{"rt":null,"stimulus":"<div style=\"background-color:#6dce98\"><h1 style=\"background-color:MediumSeaGreen\" >You earned 100 coins! Well done!</h1><div style=\"background-color:#6dce98\"><h1 style=\"background-color:MediumSeaGreen\" >Only 3100 left to go!</h1><img id=\"box\" src=\"img/prizes/coins2.png\"></img><img id=\"box\" src=\"img/empty/greenopenbox.png\"></img></div>","key_press":null,"trial_type":"html-keyboard-response","trial_index":151,"time_elapsed":494956,"internal_node_id":"0.0-19.63-1.63"},{"rt":212.8050000173971,"stimulus":"<p>Choose a box,</p>","button_pressed":1,"trial_type":"html-button-response","trial_index":152,"time_elapsed":495174,"internal_node_id":"0.0-19.64-0.64"},{"reward":100,"trial_type":"html-keyboard-response","trial_index":153,"time_elapsed":495174,"internal_node_id":"0.0-19.64-1.64"},{"penalty":1250,"trial_type":"html-keyboard-response","trial_index":153,"time_elapsed":495174,"internal_node_id":"0.0-19.64-1.64"},{"fined":false,"trial_type":"html-keyboard-response","trial_index":153,"time_elapsed":495175,"internal_node_id":"0.0-19.64-1.64"},{"rt":null,"stimulus":"<div style=\"background-color:#6dce98\"><h1 style=\"background-color:MediumSeaGreen\" >You earned 100 coins! Well done!</h1><div style=\"background-color:#6dce98\"><h1 style=\"background-color:MediumSeaGreen\" >Only 3000 left to go!</h1><img id=\"box\" src=\"img/prizes/coins2.png\"></img><img id=\"box\" src=\"img/empty/greenopenbox.png\"></img></div>","key_press":null,"trial_type":"html-keyboard-response","trial_index":153,"time_elapsed":498185,"internal_node_id":"0.0-19.64-1.64"},{"rt":305.47999998088926,"stimulus":"<p>Choose a box,</p>","button_pressed":1,"trial_type":"html-button-response","trial_index":154,"time_elapsed":498492,"internal_node_id":"0.0-19.65-0.65"},{"reward":100,"trial_type":"html-keyboard-response","trial_index":155,"time_elapsed":498493,"internal_node_id":"0.0-19.65-1.65"},{"penalty":1250,"trial_type":"html-keyboard-response","trial_index":155,"time_elapsed":498493,"internal_node_id":"0.0-19.65-1.65"},{"fined":false,"trial_type":"html-keyboard-response","trial_index":155,"time_elapsed":498493,"internal_node_id":"0.0-19.65-1.65"},{"rt":null,"stimulus":"<div style=\"background-color:#6dce98\"><h1 style=\"background-color:MediumSeaGreen\" >You earned 100 coins! Well done!</h1><div style=\"background-color:#6dce98\"><h1 style=\"background-color:MediumSeaGreen\" >Only 2900 left to go!</h1><img id=\"box\" src=\"img/prizes/coins2.png\"></img><img id=\"box\" src=\"img/empty/greenopenbox.png\"></img></div>","key_press":null,"trial_type":"html-keyboard-response","trial_index":155,"time_elapsed":501494,"internal_node_id":"0.0-19.65-1.65"},{"rt":271.08000009320676,"stimulus":"<p>Choose a box,</p>","button_pressed":1,"trial_type":"html-button-response","trial_index":156,"time_elapsed":501767,"internal_node_id":"0.0-19.66-0.66"},{"reward":100,"trial_type":"html-keyboard-response","trial_index":157,"time_elapsed":501767,"internal_node_id":"0.0-19.66-1.66"},{"penalty":1250,"trial_type":"html-keyboard-response","trial_index":157,"time_elapsed":501767,"internal_node_id":"0.0-19.66-1.66"},{"fined":false,"trial_type":"html-keyboard-response","trial_index":157,"time_elapsed":501767,"internal_node_id":"0.0-19.66-1.66"},{"rt":null,"stimulus":"<div style=\"background-color:#6dce98\"><h1 style=\"background-color:MediumSeaGreen\" >You earned 100 coins! Well done!</h1><div style=\"background-color:#6dce98\"><h1 style=\"background-color:MediumSeaGreen\" >Only 2800 left to go!</h1><img id=\"box\" src=\"img/prizes/coins2.png\"></img><img id=\"box\" src=\"img/empty/greenopenbox.png\"></img></div>","key_press":null,"trial_type":"html-keyboard-response","trial_index":157,"time_elapsed":504779,"internal_node_id":"0.0-19.66-1.66"},{"rt":229.8449999652803,"stimulus":"<p>Choose a box,</p>","button_pressed":1,"trial_type":"html-button-response","trial_index":158,"time_elapsed":505011,"internal_node_id":"0.0-19.67-0.67"},{"reward":100,"trial_type":"html-keyboard-response","trial_index":159,"time_elapsed":505011,"internal_node_id":"0.0-19.67-1.67"},{"penalty":1250,"trial_type":"html-keyboard-response","trial_index":159,"time_elapsed":505011,"internal_node_id":"0.0-19.67-1.67"},{"fined":false,"trial_type":"html-keyboard-response","trial_index":159,"time_elapsed":505012,"internal_node_id":"0.0-19.67-1.67"},{"rt":null,"stimulus":"<div style=\"background-color:#6dce98\"><h1 style=\"background-color:MediumSeaGreen\" >You earned 100 coins! Well done!</h1><div style=\"background-color:#6dce98\"><h1 style=\"background-color:MediumSeaGreen\" >Only 2700 left to go!</h1><img id=\"box\" src=\"img/prizes/coins2.png\"></img><img id=\"box\" src=\"img/empty/greenopenbox.png\"></img></div>","key_press":null,"trial_type":"html-keyboard-response","trial_index":159,"time_elapsed":508016,"internal_node_id":"0.0-19.67-1.67"},{"rt":355.320000089705,"stimulus":"<p>Choose a box,</p>","button_pressed":1,"trial_type":"html-button-response","trial_index":160,"time_elapsed":508373,"internal_node_id":"0.0-19.68-0.68"},{"reward":100,"trial_type":"html-keyboard-response","trial_index":161,"time_elapsed":508373,"internal_node_id":"0.0-19.68-1.68"},{"penalty":1250,"trial_type":"html-keyboard-response","trial_index":161,"time_elapsed":508373,"internal_node_id":"0.0-19.68-1.68"},{"fined":false,"trial_type":"html-keyboard-response","trial_index":161,"time_elapsed":508373,"internal_node_id":"0.0-19.68-1.68"},{"rt":null,"stimulus":"<div style=\"background-color:#6dce98\"><h1 style=\"background-color:MediumSeaGreen\" >You earned 100 coins! Well done!</h1><div style=\"background-color:#6dce98\"><h1 style=\"background-color:MediumSeaGreen\" >Only 2600 left to go!</h1><img id=\"box\" src=\"img/prizes/coins2.png\"></img><img id=\"box\" src=\"img/empty/greenopenbox.png\"></img></div>","key_press":null,"trial_type":"html-keyboard-response","trial_index":161,"time_elapsed":511381,"internal_node_id":"0.0-19.68-1.68"},{"rt":144.48999997694045,"stimulus":"<p>Choose a box,</p>","button_pressed":1,"trial_type":"html-button-response","trial_index":162,"time_elapsed":511528,"internal_node_id":"0.0-19.69-0.69"},{"reward":100,"trial_type":"html-keyboard-response","trial_index":163,"time_elapsed":511529,"internal_node_id":"0.0-19.69-1.69"},{"penalty":1250,"trial_type":"html-keyboard-response","trial_index":163,"time_elapsed":511529,"internal_node_id":"0.0-19.69-1.69"},{"fined":true,"trial_type":"html-keyboard-response","trial_index":163,"time_elapsed":511529,"internal_node_id":"0.0-19.69-1.69"},{"rt":null,"stimulus":"<div style=\"background-color:#ff7157\"><h1 style=\"background-color:MediumSeaGreen\">You earned 100 coins</h1><h1 h1 style=\"background-color:Tomato\">but you have recieved a fine of 1250 coins</h1><h1 style=\"background-color:Tomato\">Remember, you need to keep going until you have 3000 coins!</h1><img id=\"box\" src=\"img/prizes/1250.png\"></img><img id=\"box\" src=\"img/sad/greenopenboxsadthumb.png\"></img></div>","key_press":null,"trial_type":"html-keyboard-response","trial_index":163,"time_elapsed":514531,"internal_node_id":"0.0-19.69-1.69"},{"rt":260.9350000275299,"stimulus":"<p>Choose a box,</p>","button_pressed":1,"trial_type":"html-button-response","trial_index":164,"time_elapsed":514794,"internal_node_id":"0.0-19.70-0.70"},{"reward":100,"trial_type":"html-keyboard-response","trial_index":165,"time_elapsed":514795,"internal_node_id":"0.0-19.70-1.70"},{"penalty":1250,"trial_type":"html-keyboard-response","trial_index":165,"time_elapsed":514795,"internal_node_id":"0.0-19.70-1.70"},{"fined":false,"trial_type":"html-keyboard-response","trial_index":165,"time_elapsed":514795,"internal_node_id":"0.0-19.70-1.70"},{"rt":null,"stimulus":"<div style=\"background-color:#6dce98\"><h1 style=\"background-color:MediumSeaGreen\" >You earned 100 coins! Well done!</h1><div style=\"background-color:#6dce98\"><h1 style=\"background-color:MediumSeaGreen\" >Only 3650 left to go!</h1><img id=\"box\" src=\"img/prizes/coins2.png\"></img><img id=\"box\" src=\"img/empty/greenopenbox.png\"></img></div>","key_press":null,"trial_type":"html-keyboard-response","trial_index":165,"time_elapsed":517802,"internal_node_id":"0.0-19.70-1.70"},{"rt":237.42000001948327,"stimulus":"<p>Choose a box,</p>","button_pressed":1,"trial_type":"html-button-response","trial_index":166,"time_elapsed":518042,"internal_node_id":"0.0-19.71-0.71"},{"reward":100,"trial_type":"html-keyboard-response","trial_index":167,"time_elapsed":518042,"internal_node_id":"0.0-19.71-1.71"},{"penalty":1250,"trial_type":"html-keyboard-response","trial_index":167,"time_elapsed":518042,"internal_node_id":"0.0-19.71-1.71"},{"fined":true,"trial_type":"html-keyboard-response","trial_index":167,"time_elapsed":518042,"internal_node_id":"0.0-19.71-1.71"},{"rt":null,"stimulus":"<div style=\"background-color:#ff7157\"><h1 style=\"background-color:MediumSeaGreen\">You earned 100 coins</h1><h1 h1 style=\"background-color:Tomato\">but you have recieved a fine of 1250 coins</h1><h1 style=\"background-color:Tomato\">Remember, you need to keep going until you have 3000 coins!</h1><img id=\"box\" src=\"img/prizes/1250.png\"></img><img id=\"box\" src=\"img/sad/greenopenboxsadthumb.png\"></img></div>","key_press":null,"trial_type":"html-keyboard-response","trial_index":167,"time_elapsed":521046,"internal_node_id":"0.0-19.71-1.71"},{"rt":301.87999992631376,"stimulus":"<p>Choose a box,</p>","button_pressed":1,"trial_type":"html-button-response","trial_index":168,"time_elapsed":521350,"internal_node_id":"0.0-19.72-0.72"},{"reward":100,"trial_type":"html-keyboard-response","trial_index":169,"time_elapsed":521351,"internal_node_id":"0.0-19.72-1.72"},{"penalty":1250,"trial_type":"html-keyboard-response","trial_index":169,"time_elapsed":521351,"internal_node_id":"0.0-19.72-1.72"},{"fined":true,"trial_type":"html-keyboard-response","trial_index":169,"time_elapsed":521351,"internal_node_id":"0.0-19.72-1.72"},{"rt":null,"stimulus":"<div style=\"background-color:#ff7157\"><h1 style=\"background-color:MediumSeaGreen\">You earned 100 coins</h1><h1 h1 style=\"background-color:Tomato\">but you have recieved a fine of 1250 coins</h1><h1 style=\"background-color:Tomato\">Remember, you need to keep going until you have 3000 coins!</h1><img id=\"box\" src=\"img/prizes/1250.png\"></img><img id=\"box\" src=\"img/sad/greenopenboxsadthumb.png\"></img></div>","key_press":null,"trial_type":"html-keyboard-response","trial_index":169,"time_elapsed":524361,"internal_node_id":"0.0-19.72-1.72"},{"rt":150.81499994266778,"stimulus":"<p>Choose a box,</p>","button_pressed":1,"trial_type":"html-button-response","trial_index":170,"time_elapsed":524514,"internal_node_id":"0.0-19.73-0.73"},{"reward":100,"trial_type":"html-keyboard-response","trial_index":171,"time_elapsed":524514,"internal_node_id":"0.0-19.73-1.73"},{"penalty":1250,"trial_type":"html-keyboard-response","trial_index":171,"time_elapsed":524514,"internal_node_id":"0.0-19.73-1.73"},{"fined":true,"trial_type":"html-keyboard-response","trial_index":171,"time_elapsed":524514,"internal_node_id":"0.0-19.73-1.73"},{"rt":null,"stimulus":"<div style=\"background-color:#ff7157\"><h1 style=\"background-color:MediumSeaGreen\">You earned 100 coins</h1><h1 h1 style=\"background-color:Tomato\">but you have recieved a fine of 1250 coins</h1><h1 style=\"background-color:Tomato\">Remember, you need to keep going until you have 3000 coins!</h1><img id=\"box\" src=\"img/prizes/1250.png\"></img><img id=\"box\" src=\"img/sad/greenopenboxsadthumb.png\"></img></div>","key_press":null,"trial_type":"html-keyboard-response","trial_index":171,"time_elapsed":527524,"internal_node_id":"0.0-19.73-1.73"},{"rt":1220.4449999844655,"stimulus":"<p>Choose a box,</p>","button_pressed":3,"trial_type":"html-button-response","trial_index":172,"time_elapsed":528746,"internal_node_id":"0.0-19.74-0.74"},{"reward":50,"trial_type":"html-keyboard-response","trial_index":173,"time_elapsed":528746,"internal_node_id":"0.0-19.74-1.74"},{"penalty":250,"trial_type":"html-keyboard-response","trial_index":173,"time_elapsed":528746,"internal_node_id":"0.0-19.74-1.74"},{"fined":false,"trial_type":"html-keyboard-response","trial_index":173,"time_elapsed":528746,"internal_node_id":"0.0-19.74-1.74"},{"rt":null,"stimulus":"<div style=\"background-color:#6dce98\"><h1 style=\"background-color:MediumSeaGreen\" >You earned 50 coins! Well done!</h1><div style=\"background-color:#6dce98\"><h1 style=\"background-color:MediumSeaGreen\" >Only 7050 left to go!</h1><img id=\"box\" src=\"img/prizes/coins.png\"></img><img id=\"box\" src=\"img/empty/redopenbox.png\"></img></div>","key_press":null,"trial_type":"html-keyboard-response","trial_index":173,"time_elapsed":531752,"internal_node_id":"0.0-19.74-1.74"},{"rt":401.39000001363456,"stimulus":"<p>Choose a box,</p>","button_pressed":3,"trial_type":"html-button-response","trial_index":174,"time_elapsed":532155,"internal_node_id":"0.0-19.75-0.75"},{"reward":50,"trial_type":"html-keyboard-response","trial_index":175,"time_elapsed":532155,"internal_node_id":"0.0-19.75-1.75"},{"penalty":250,"trial_type":"html-keyboard-response","trial_index":175,"time_elapsed":532155,"internal_node_id":"0.0-19.75-1.75"},{"fined":false,"trial_type":"html-keyboard-response","trial_index":175,"time_elapsed":532155,"internal_node_id":"0.0-19.75-1.75"},{"rt":null,"stimulus":"<div style=\"background-color:#6dce98\"><h1 style=\"background-color:MediumSeaGreen\" >You earned 50 coins! Well done!</h1><div style=\"background-color:#6dce98\"><h1 style=\"background-color:MediumSeaGreen\" >Only 7000 left to go!</h1><img id=\"box\" src=\"img/prizes/coins.png\"></img><img id=\"box\" src=\"img/empty/redopenbox.png\"></img></div>","key_press":null,"trial_type":"html-keyboard-response","trial_index":175,"time_elapsed":535160,"internal_node_id":"0.0-19.75-1.75"},{"rt":342.8800000110641,"stimulus":"<p>Choose a box,</p>","button_pressed":3,"trial_type":"html-button-response","trial_index":176,"time_elapsed":535506,"internal_node_id":"0.0-19.76-0.76"},{"reward":50,"trial_type":"html-keyboard-response","trial_index":177,"time_elapsed":535506,"internal_node_id":"0.0-19.76-1.76"},{"penalty":250,"trial_type":"html-keyboard-response","trial_index":177,"time_elapsed":535506,"internal_node_id":"0.0-19.76-1.76"},{"fined":false,"trial_type":"html-keyboard-response","trial_index":177,"time_elapsed":535506,"internal_node_id":"0.0-19.76-1.76"},{"rt":null,"stimulus":"<div style=\"background-color:#6dce98\"><h1 style=\"background-color:MediumSeaGreen\" >You earned 50 coins! Well done!</h1><div style=\"background-color:#6dce98\"><h1 style=\"background-color:MediumSeaGreen\" >Only 6950 left to go!</h1><img id=\"box\" src=\"img/prizes/coins.png\"></img><img id=\"box\" src=\"img/empty/redopenbox.png\"></img></div>","key_press":null,"trial_type":"html-keyboard-response","trial_index":177,"time_elapsed":538508,"internal_node_id":"0.0-19.76-1.76"},{"rt":373.51499998476356,"stimulus":"<p>Choose a box,</p>","button_pressed":1,"trial_type":"html-button-response","trial_index":178,"time_elapsed":538883,"internal_node_id":"0.0-19.77-0.77"},{"reward":100,"trial_type":"html-keyboard-response","trial_index":179,"time_elapsed":538884,"internal_node_id":"0.0-19.77-1.77"},{"penalty":1250,"trial_type":"html-keyboard-response","trial_index":179,"time_elapsed":538884,"internal_node_id":"0.0-19.77-1.77"},{"fined":false,"trial_type":"html-keyboard-response","trial_index":179,"time_elapsed":538884,"internal_node_id":"0.0-19.77-1.77"},{"rt":null,"stimulus":"<div style=\"background-color:#6dce98\"><h1 style=\"background-color:MediumSeaGreen\" >You earned 100 coins! Well done!</h1><div style=\"background-color:#6dce98\"><h1 style=\"background-color:MediumSeaGreen\" >Only 6850 left to go!</h1><img id=\"box\" src=\"img/prizes/coins2.png\"></img><img id=\"box\" src=\"img/empty/greenopenbox.png\"></img></div>","key_press":null,"trial_type":"html-keyboard-response","trial_index":179,"time_elapsed":541890,"internal_node_id":"0.0-19.77-1.77"},{"rt":364.6350000053644,"stimulus":"<p>Choose a box,</p>","button_pressed":3,"trial_type":"html-button-response","trial_index":180,"time_elapsed":542258,"internal_node_id":"0.0-19.78-0.78"},{"reward":50,"trial_type":"html-keyboard-response","trial_index":181,"time_elapsed":542258,"internal_node_id":"0.0-19.78-1.78"},{"penalty":250,"trial_type":"html-keyboard-response","trial_index":181,"time_elapsed":542258,"internal_node_id":"0.0-19.78-1.78"},{"fined":false,"trial_type":"html-keyboard-response","trial_index":181,"time_elapsed":542258,"internal_node_id":"0.0-19.78-1.78"},{"rt":null,"stimulus":"<div style=\"background-color:#6dce98\"><h1 style=\"background-color:MediumSeaGreen\" >You earned 50 coins! Well done!</h1><div style=\"background-color:#6dce98\"><h1 style=\"background-color:MediumSeaGreen\" >Only 6800 left to go!</h1><img id=\"box\" src=\"img/prizes/coins.png\"></img><img id=\"box\" src=\"img/empty/redopenbox.png\"></img></div>","key_press":null,"trial_type":"html-keyboard-response","trial_index":181,"time_elapsed":545261,"internal_node_id":"0.0-19.78-1.78"},{"rt":385.42000006418675,"stimulus":"<p>Choose a box,</p>","button_pressed":1,"trial_type":"html-button-response","trial_index":182,"time_elapsed":545657,"internal_node_id":"0.0-19.79-0.79"},{"reward":100,"trial_type":"html-keyboard-response","trial_index":183,"time_elapsed":545657,"internal_node_id":"0.0-19.79-1.79"},{"penalty":1250,"trial_type":"html-keyboard-response","trial_index":183,"time_elapsed":545657,"internal_node_id":"0.0-19.79-1.79"},{"fined":false,"trial_type":"html-keyboard-response","trial_index":183,"time_elapsed":545657,"internal_node_id":"0.0-19.79-1.79"},{"rt":null,"stimulus":"<div style=\"background-color:#6dce98\"><h1 style=\"background-color:MediumSeaGreen\" >You earned 100 coins! Well done!</h1><div style=\"background-color:#6dce98\"><h1 style=\"background-color:MediumSeaGreen\" >Only 6700 left to go!</h1><img id=\"box\" src=\"img/prizes/coins2.png\"></img><img id=\"box\" src=\"img/empty/greenopenbox.png\"></img></div>","key_press":null,"trial_type":"html-keyboard-response","trial_index":183,"time_elapsed":548667,"internal_node_id":"0.0-19.79-1.79"},{"rt":1078.925000037998,"stimulus":"<p>Choose a box,</p>","button_pressed":3,"trial_type":"html-button-response","trial_index":184,"time_elapsed":549747,"internal_node_id":"0.0-19.80-0.80"},{"reward":50,"trial_type":"html-keyboard-response","trial_index":185,"time_elapsed":549748,"internal_node_id":"0.0-19.80-1.80"},{"penalty":250,"trial_type":"html-keyboard-response","trial_index":185,"time_elapsed":549748,"internal_node_id":"0.0-19.80-1.80"},{"fined":false,"trial_type":"html-keyboard-response","trial_index":185,"time_elapsed":549748,"internal_node_id":"0.0-19.80-1.80"},{"rt":null,"stimulus":"<div style=\"background-color:#6dce98\"><h1 style=\"background-color:MediumSeaGreen\" >You earned 50 coins! Well done!</h1><div style=\"background-color:#6dce98\"><h1 style=\"background-color:MediumSeaGreen\" >Only 6650 left to go!</h1><img id=\"box\" src=\"img/prizes/coins.png\"></img><img id=\"box\" src=\"img/empty/redopenbox.png\"></img></div>","key_press":null,"trial_type":"html-keyboard-response","trial_index":185,"time_elapsed":552755,"internal_node_id":"0.0-19.80-1.80"},{"rt":389.22499993350357,"stimulus":"<p>Choose a box,</p>","button_pressed":1,"trial_type":"html-button-response","trial_index":186,"time_elapsed":553147,"internal_node_id":"0.0-19.81-0.81"},{"reward":100,"trial_type":"html-keyboard-response","trial_index":187,"time_elapsed":553148,"internal_node_id":"0.0-19.81-1.81"},{"penalty":1250,"trial_type":"html-keyboard-response","trial_index":187,"time_elapsed":553148,"internal_node_id":"0.0-19.81-1.81"},{"fined":false,"trial_type":"html-keyboard-response","trial_index":187,"time_elapsed":553148,"internal_node_id":"0.0-19.81-1.81"},{"rt":null,"stimulus":"<div style=\"background-color:#6dce98\"><h1 style=\"background-color:MediumSeaGreen\" >You earned 100 coins! Well done!</h1><div style=\"background-color:#6dce98\"><h1 style=\"background-color:MediumSeaGreen\" >Only 6550 left to go!</h1><img id=\"box\" src=\"img/prizes/coins2.png\"></img><img id=\"box\" src=\"img/empty/greenopenbox.png\"></img></div>","key_press":null,"trial_type":"html-keyboard-response","trial_index":187,"time_elapsed":556154,"internal_node_id":"0.0-19.81-1.81"},{"rt":421.31000000517815,"stimulus":"<p>Choose a box,</p>","button_pressed":3,"trial_type":"html-button-response","trial_index":188,"time_elapsed":556577,"internal_node_id":"0.0-19.82-0.82"},{"reward":50,"trial_type":"html-keyboard-response","trial_index":189,"time_elapsed":556578,"internal_node_id":"0.0-19.82-1.82"},{"penalty":250,"trial_type":"html-keyboard-response","trial_index":189,"time_elapsed":556578,"internal_node_id":"0.0-19.82-1.82"},{"fined":false,"trial_type":"html-keyboard-response","trial_index":189,"time_elapsed":556578,"internal_node_id":"0.0-19.82-1.82"},{"rt":null,"stimulus":"<div style=\"background-color:#6dce98\"><h1 style=\"background-color:MediumSeaGreen\" >You earned 50 coins! Well done!</h1><div style=\"background-color:#6dce98\"><h1 style=\"background-color:MediumSeaGreen\" >Only 6500 left to go!</h1><img id=\"box\" src=\"img/prizes/coins.png\"></img><img id=\"box\" src=\"img/empty/redopenbox.png\"></img></div>","key_press":null,"trial_type":"html-keyboard-response","trial_index":189,"time_elapsed":559580,"internal_node_id":"0.0-19.82-1.82"},{"rt":481.41500004567206,"stimulus":"<p>Choose a box,</p>","button_pressed":1,"trial_type":"html-button-response","trial_index":190,"time_elapsed":560064,"internal_node_id":"0.0-19.83-0.83"},{"reward":100,"trial_type":"html-keyboard-response","trial_index":191,"time_elapsed":560064,"internal_node_id":"0.0-19.83-1.83"},{"penalty":1250,"trial_type":"html-keyboard-response","trial_index":191,"time_elapsed":560064,"internal_node_id":"0.0-19.83-1.83"},{"fined":false,"trial_type":"html-keyboard-response","trial_index":191,"time_elapsed":560064,"internal_node_id":"0.0-19.83-1.83"},{"rt":null,"stimulus":"<div style=\"background-color:#6dce98\"><h1 style=\"background-color:MediumSeaGreen\" >You earned 100 coins! Well done!</h1><div style=\"background-color:#6dce98\"><h1 style=\"background-color:MediumSeaGreen\" >Only 6400 left to go!</h1><img id=\"box\" src=\"img/prizes/coins2.png\"></img><img id=\"box\" src=\"img/empty/greenopenbox.png\"></img></div>","key_press":null,"trial_type":"html-keyboard-response","trial_index":191,"time_elapsed":563071,"internal_node_id":"0.0-19.83-1.83"},{"rt":630.0700000720099,"stimulus":"<p>Choose a box,</p>","button_pressed":3,"trial_type":"html-button-response","trial_index":192,"time_elapsed":563704,"internal_node_id":"0.0-19.84-0.84"},{"reward":50,"trial_type":"html-keyboard-response","trial_index":193,"time_elapsed":563705,"internal_node_id":"0.0-19.84-1.84"}