[{"view_history":"[{\"page_index\":0,\"viewing_time\":22266.874999999345},{\"page_index\":1,\"viewing_time\":7247.015000000829},{\"page_index\":2,\"viewing_time\":8872.849999999744},{\"page_index\":3,\"viewing_time\":9280.165000000125},{\"page_index\":4,\"viewing_time\":1564.8199999995995},{\"page_index\":5,\"viewing_time\":1463.4549999991577}]","rt":50695.879999999306,"trial_type":"instructions","trial_index":0,"time_elapsed":50698,"internal_node_id":"0.0-0.0"},{"rt":6686.035000000629,"responses":"{\"Q0\":\"Yes\",\"Q1\":\"Yes\",\"Q2\":\"Yes\"}","question_order":"[0,1,2]","trial_type":"survey-multi-choice","trial_index":1,"time_elapsed":57386,"internal_node_id":"0.0-1.0-0.0"},{"rt":15429.35000000034,"responses":"{\"Q0\":\"Yes\",\"Q1\":\"No\",\"Q2\":\"No\"}","question_order":"[0,1,2]","trial_type":"survey-multi-choice","trial_index":2,"time_elapsed":72817,"internal_node_id":"0.0-2.0-0.0"},{"rt":2891.4550000008603,"responses":"{\"Q0\":\"Yes\",\"Q1\":\"Yes\",\"Q2\":\"Yes\"}","question_order":"[0,1,2]","trial_type":"survey-multi-choice","trial_index":3,"time_elapsed":78244,"internal_node_id":"0.0-2.1-0.1"},{"rt":3574.9400000004243,"responses":"{\"Q0\":\"5ed572a76e3f870fc76c6334\"}","trial_type":"survey-text","trial_index":4,"time_elapsed":81821,"internal_node_id":"0.0-3.0"},{"rt":3928.3550000000105,"responses":"{\"Q0\":\"Male\",\"Q1\":\"18-25\"}","question_order":"[0,1]","trial_type":"survey-multi-choice","trial_index":5,"time_elapsed":85751,"internal_node_id":"0.0-4.0"},{"rt":4188.1499999999505,"responses":"{\"Q0\":\"\"}","trial_type":"survey-text","trial_index":6,"time_elapsed":89940,"internal_node_id":"0.0-5.0"},{"view_history":"[{\"page_index\":0,\"viewing_time\":2836.4849999998114}]","rt":2836.714999999458,"trial_type":"instructions","trial_index":7,"time_elapsed":92778,"internal_node_id":"0.0-6.0"},{"rt":10642.969999998968,"responses":"{\"Interested\":3,\"Distressed\":1,\"Excited\":3,\"Upset\":0}","question_order":"[0,1,2,3]","trial_type":"survey-likert","trial_index":8,"time_elapsed":103422,"internal_node_id":"0.0-7.0"},{"rt":5495.535000000018,"responses":"{\"Strong\":4,\"Guilty\":0,\"Scared\":0,\"Hostile\":0}","question_order":"[0,1,2,3]","trial_type":"survey-likert","trial_index":9,"time_elapsed":108919,"internal_node_id":"0.0-8.0"},{"rt":8690.950000000157,"responses":"{\"Enthusiastic\":3,\"Proud\":2,\"Irritable\":2,\"Alert\":2}","question_order":"[0,1,2,3]","trial_type":"survey-likert","trial_index":10,"time_elapsed":117610,"internal_node_id":"0.0-9.0"},{"rt":6564.080000000104,"responses":"{\"Ashamed\":0,\"Inspired\":4,\"Nervous\":0,\"Determined\":3}","question_order":"[0,1,2,3]","trial_type":"survey-likert","trial_index":11,"time_elapsed":124175,"internal_node_id":"0.0-10.0"},{"rt":8960.140000001047,"responses":"{\"Attentive\":3,\"Jittery\":0,\"Active\":4,\"Afraid\":1}","question_order":"[0,1,2,3]","trial_type":"survey-likert","trial_index":12,"time_elapsed":133137,"internal_node_id":"0.0-11.0"},{"rt":13712.760000000359,"responses":"{\"Q0\":1,\"Q1\":0,\"Q2\":0,\"Q3\":0}","question_order":"[0,1,2,3]","trial_type":"survey-likert","trial_index":13,"time_elapsed":146851,"internal_node_id":"0.0-12.0"},{"rt":25565.88000000012,"responses":"{\"Q0\":0,\"Q1\":0,\"Q2\":0,\"Q3\":0}","question_order":"[0,1,2,3]","trial_type":"survey-likert","trial_index":14,"time_elapsed":172418,"internal_node_id":"0.0-13.0"},{"rt":16329.079999999492,"responses":"{\"Q0\":0,\"Q1\":0,\"Q2\":1,\"Q3\":0}","question_order":"[0,1,2,3]","trial_type":"survey-likert","trial_index":15,"time_elapsed":188748,"internal_node_id":"0.0-14.0"},{"rt":7286.869999999937,"responses":"{\"Q0\":0,\"Q1\":0,\"Q2\":0}","question_order":"[0,1,2]","trial_type":"survey-likert","trial_index":16,"time_elapsed":196036,"internal_node_id":"0.0-15.0"},{"view_history":"[{\"page_index\":0,\"viewing_time\":2206.649999998277},{\"page_index\":1,\"viewing_time\":5846.780000001658},{\"page_index\":2,\"viewing_time\":3197.9999999984866}]","rt":11252.074999998498,"trial_type":"instructions","trial_index":17,"time_elapsed":207290,"internal_node_id":"0.0-16.0"},{"rt":975.6199999992386,"stimulus":"<p>Choose a box,</p>","button_pressed":2,"trial_type":"html-button-response","trial_index":18,"time_elapsed":208267,"internal_node_id":"0.0-17.0-0.0"},{"reward":50,"trial_type":"html-keyboard-response","trial_index":19,"time_elapsed":208267,"internal_node_id":"0.0-17.0-1.0"},{"penalty":50,"trial_type":"html-keyboard-response","trial_index":19,"time_elapsed":208267,"internal_node_id":"0.0-17.0-1.0"},{"fined":false,"trial_type":"html-keyboard-response","trial_index":19,"time_elapsed":208267,"internal_node_id":"0.0-17.0-1.0"},{"rt":null,"stimulus":"<div style=\"background-color:#6dce98\"><h1 style=\"background-color:MediumSeaGreen\" >You earned 50 coins! Well done!</h1><div style=\"background-color:#6dce98\"><h1 style=\"background-color:MediumSeaGreen\" >Only 1450 left to go!</h1><img id=\"box\" src=\"img/prizes/coins.png\"></img><img id=\"box\" src=\"img/empty/purpleopenbox.png\"></img></div>","key_press":null,"trial_type":"html-keyboard-response","trial_index":19,"time_elapsed":211269,"internal_node_id":"0.0-17.0-1.0"},{"rt":807.3899999999267,"stimulus":"<p>Choose a box,</p>","button_pressed":3,"trial_type":"html-button-response","trial_index":20,"time_elapsed":212079,"internal_node_id":"0.0-17.0-0.1"},{"reward":50,"trial_type":"html-keyboard-response","trial_index":21,"time_elapsed":212079,"internal_node_id":"0.0-17.0-1.1"},{"penalty":250,"trial_type":"html-keyboard-response","trial_index":21,"time_elapsed":212079,"internal_node_id":"0.0-17.0-1.1"},{"fined":false,"trial_type":"html-keyboard-response","trial_index":21,"time_elapsed":212079,"internal_node_id":"0.0-17.0-1.1"},{"rt":null,"stimulus":"<div style=\"background-color:#6dce98\"><h1 style=\"background-color:MediumSeaGreen\" >You earned 50 coins! Well done!</h1><div style=\"background-color:#6dce98\"><h1 style=\"background-color:MediumSeaGreen\" >Only 1400 left to go!</h1><img id=\"box\" src=\"img/prizes/coins.png\"></img><img id=\"box\" src=\"img/empty/redopenbox.png\"></img></div>","key_press":null,"trial_type":"html-keyboard-response","trial_index":21,"time_elapsed":215082,"internal_node_id":"0.0-17.0-1.1"},{"rt":776.1800000007497,"stimulus":"<p>Choose a box,</p>","button_pressed":2,"trial_type":"html-button-response","trial_index":22,"time_elapsed":215860,"internal_node_id":"0.0-17.0-0.2"},{"reward":50,"trial_type":"html-keyboard-response","trial_index":23,"time_elapsed":215860,"internal_node_id":"0.0-17.0-1.2"},{"penalty":50,"trial_type":"html-keyboard-response","trial_index":23,"time_elapsed":215860,"internal_node_id":"0.0-17.0-1.2"},{"fined":true,"trial_type":"html-keyboard-response","trial_index":23,"time_elapsed":215860,"internal_node_id":"0.0-17.0-1.2"},{"rt":null,"stimulus":"<div style=\"background-color:#ff7157\"><h1 style=\"background-color:MediumSeaGreen\">You earned 50 coins</h1><h1 h1 style=\"background-color:Tomato\">but you have recieved a fine of 50 coins</h1><h1 style=\"background-color:Tomato\">Remember, you need to keep going until you have 3000 coins!</h1><img id=\"box\" src=\"img/prizes/50.png\"></img><img id=\"box\" src=\"img/sad/purpleopenboxsadthumb.png\"></img></div>","key_press":null,"trial_type":"html-keyboard-response","trial_index":23,"time_elapsed":218862,"internal_node_id":"0.0-17.0-1.2"},{"view_history":"[{\"page_index\":0,\"viewing_time\":1217.9500000001863}]","rt":1218.124999999418,"trial_type":"instructions","trial_index":24,"time_elapsed":220082,"internal_node_id":"0.0-18.0"},{"rt":1827.6150000001653,"stimulus":"<p>Choose a box,</p>","button_pressed":0,"trial_type":"html-button-response","trial_index":25,"time_elapsed":221910,"internal_node_id":"0.0-19.0-0.0"},{"reward":100,"trial_type":"html-keyboard-response","trial_index":26,"time_elapsed":221910,"internal_node_id":"0.0-19.0-1.0"},{"penalty":250,"trial_type":"html-keyboard-response","trial_index":26,"time_elapsed":221910,"internal_node_id":"0.0-19.0-1.0"},{"fined":true,"trial_type":"html-keyboard-response","trial_index":26,"time_elapsed":221910,"internal_node_id":"0.0-19.0-1.0"},{"rt":null,"stimulus":"<div style=\"background-color:#ff7157\"><h1 style=\"background-color:MediumSeaGreen\">You earned 100 coins</h1><h1 h1 style=\"background-color:Tomato\">but you have recieved a fine of 250 coins</h1><h1 style=\"background-color:Tomato\">Remember, you need to keep going until you have 3000 coins!</h1><img id=\"box\" src=\"img/prizes/250.png\"></img><img id=\"box\" src=\"img/sad/blueopenboxsadthumb.png\"></img></div>","key_press":null,"trial_type":"html-keyboard-response","trial_index":26,"time_elapsed":224913,"internal_node_id":"0.0-19.0-1.0"},{"rt":628.5349999998289,"stimulus":"<p>Choose a box,</p>","button_pressed":2,"trial_type":"html-button-response","trial_index":27,"time_elapsed":225546,"internal_node_id":"0.0-19.1-0.1"},{"reward":50,"trial_type":"html-keyboard-response","trial_index":28,"time_elapsed":225546,"internal_node_id":"0.0-19.1-1.1"},{"penalty":50,"trial_type":"html-keyboard-response","trial_index":28,"time_elapsed":225546,"internal_node_id":"0.0-19.1-1.1"},{"fined":true,"trial_type":"html-keyboard-response","trial_index":28,"time_elapsed":225546,"internal_node_id":"0.0-19.1-1.1"},{"rt":null,"stimulus":"<div style=\"background-color:#ff7157\"><h1 style=\"background-color:MediumSeaGreen\">You earned 50 coins</h1><h1 h1 style=\"background-color:Tomato\">but you have recieved a fine of 50 coins</h1><h1 style=\"background-color:Tomato\">Remember, you need to keep going until you have 3000 coins!</h1><img id=\"box\" src=\"img/prizes/50.png\"></img><img id=\"box\" src=\"img/sad/purpleopenboxsadthumb.png\"></img></div>","key_press":null,"trial_type":"html-keyboard-response","trial_index":28,"time_elapsed":228547,"internal_node_id":"0.0-19.1-1.1"},{"rt":596.2749999998778,"stimulus":"<p>Choose a box,</p>","button_pressed":2,"trial_type":"html-button-response","trial_index":29,"time_elapsed":229144,"internal_node_id":"0.0-19.2-0.2"},{"reward":50,"trial_type":"html-keyboard-response","trial_index":30,"time_elapsed":229144,"internal_node_id":"0.0-19.2-1.2"},{"penalty":50,"trial_type":"html-keyboard-response","trial_index":30,"time_elapsed":229144,"internal_node_id":"0.0-19.2-1.2"},{"fined":false,"trial_type":"html-keyboard-response","trial_index":30,"time_elapsed":229144,"internal_node_id":"0.0-19.2-1.2"},{"rt":null,"stimulus":"<div style=\"background-color:#6dce98\"><h1 style=\"background-color:MediumSeaGreen\" >You earned 50 coins! Well done!</h1><div style=\"background-color:#6dce98\"><h1 style=\"background-color:MediumSeaGreen\" >Only 1600 left to go!</h1><img id=\"box\" src=\"img/prizes/coins.png\"></img><img id=\"box\" src=\"img/empty/purpleopenbox.png\"></img></div>","key_press":null,"trial_type":"html-keyboard-response","trial_index":30,"time_elapsed":232145,"internal_node_id":"0.0-19.2-1.2"},{"rt":196.24500000101398,"stimulus":"<p>Choose a box,</p>","button_pressed":2,"trial_type":"html-button-response","trial_index":31,"time_elapsed":232342,"internal_node_id":"0.0-19.3-0.3"},{"reward":50,"trial_type":"html-keyboard-response","trial_index":32,"time_elapsed":232343,"internal_node_id":"0.0-19.3-1.3"},{"penalty":50,"trial_type":"html-keyboard-response","trial_index":32,"time_elapsed":232343,"internal_node_id":"0.0-19.3-1.3"},{"fined":true,"trial_type":"html-keyboard-response","trial_index":32,"time_elapsed":232343,"internal_node_id":"0.0-19.3-1.3"},{"rt":null,"stimulus":"<div style=\"background-color:#ff7157\"><h1 style=\"background-color:MediumSeaGreen\">You earned 50 coins</h1><h1 h1 style=\"background-color:Tomato\">but you have recieved a fine of 50 coins</h1><h1 style=\"background-color:Tomato\">Remember, you need to keep going until you have 3000 coins!</h1><img id=\"box\" src=\"img/prizes/50.png\"></img><img id=\"box\" src=\"img/sad/purpleopenboxsadthumb.png\"></img></div>","key_press":null,"trial_type":"html-keyboard-response","trial_index":32,"time_elapsed":235345,"internal_node_id":"0.0-19.3-1.3"},{"rt":236.65499999877647,"stimulus":"<p>Choose a box,</p>","button_pressed":3,"trial_type":"html-button-response","trial_index":33,"time_elapsed":235584,"internal_node_id":"0.0-19.4-0.4"},{"reward":50,"trial_type":"html-keyboard-response","trial_index":34,"time_elapsed":235584,"internal_node_id":"0.0-19.4-1.4"},{"penalty":250,"trial_type":"html-keyboard-response","trial_index":34,"time_elapsed":235584,"internal_node_id":"0.0-19.4-1.4"},{"fined":false,"trial_type":"html-keyboard-response","trial_index":34,"time_elapsed":235584,"internal_node_id":"0.0-19.4-1.4"},{"rt":null,"stimulus":"<div style=\"background-color:#6dce98\"><h1 style=\"background-color:MediumSeaGreen\" >You earned 50 coins! Well done!</h1><div style=\"background-color:#6dce98\"><h1 style=\"background-color:MediumSeaGreen\" >Only 1550 left to go!</h1><img id=\"box\" src=\"img/prizes/coins.png\"></img><img id=\"box\" src=\"img/empty/redopenbox.png\"></img></div>","key_press":null,"trial_type":"html-keyboard-response","trial_index":34,"time_elapsed":238587,"internal_node_id":"0.0-19.4-1.4"},{"rt":199.37500000014552,"stimulus":"<p>Choose a box,</p>","button_pressed":1,"trial_type":"html-button-response","trial_index":35,"time_elapsed":238787,"internal_node_id":"0.0-19.5-0.5"},{"reward":100,"trial_type":"html-keyboard-response","trial_index":36,"time_elapsed":238787,"internal_node_id":"0.0-19.5-1.5"},{"penalty":1250,"trial_type":"html-keyboard-response","trial_index":36,"time_elapsed":238787,"internal_node_id":"0.0-19.5-1.5"},{"fined":false,"trial_type":"html-keyboard-response","trial_index":36,"time_elapsed":238788,"internal_node_id":"0.0-19.5-1.5"},{"rt":null,"stimulus":"<div style=\"background-color:#6dce98\"><h1 style=\"background-color:MediumSeaGreen\" >You earned 100 coins! Well done!</h1><div style=\"background-color:#6dce98\"><h1 style=\"background-color:MediumSeaGreen\" >Only 1450 left to go!</h1><img id=\"box\" src=\"img/prizes/coins2.png\"></img><img id=\"box\" src=\"img/empty/greenopenbox.png\"></img></div>","key_press":null,"trial_type":"html-keyboard-response","trial_index":36,"time_elapsed":241789,"internal_node_id":"0.0-19.5-1.5"},{"rt":960.2149999991525,"stimulus":"<p>Choose a box,</p>","button_pressed":1,"trial_type":"html-button-response","trial_index":37,"time_elapsed":242752,"internal_node_id":"0.0-19.6-0.6"},{"reward":100,"trial_type":"html-keyboard-response","trial_index":38,"time_elapsed":242752,"internal_node_id":"0.0-19.6-1.6"},{"penalty":1250,"trial_type":"html-keyboard-response","trial_index":38,"time_elapsed":242752,"internal_node_id":"0.0-19.6-1.6"},{"fined":false,"trial_type":"html-keyboard-response","trial_index":38,"time_elapsed":242752,"internal_node_id":"0.0-19.6-1.6"},{"rt":null,"stimulus":"<div style=\"background-color:#6dce98\"><h1 style=\"background-color:MediumSeaGreen\" >You earned 100 coins! Well done!</h1><div style=\"background-color:#6dce98\"><h1 style=\"background-color:MediumSeaGreen\" >Only 1350 left to go!</h1><img id=\"box\" src=\"img/prizes/coins2.png\"></img><img id=\"box\" src=\"img/empty/greenopenbox.png\"></img></div>","key_press":null,"trial_type":"html-keyboard-response","trial_index":38,"time_elapsed":245754,"internal_node_id":"0.0-19.6-1.6"},{"rt":212.6800000005751,"stimulus":"<p>Choose a box,</p>","button_pressed":1,"trial_type":"html-button-response","trial_index":39,"time_elapsed":245969,"internal_node_id":"0.0-19.7-0.7"},{"reward":100,"trial_type":"html-keyboard-response","trial_index":40,"time_elapsed":245970,"internal_node_id":"0.0-19.7-1.7"},{"penalty":1250,"trial_type":"html-keyboard-response","trial_index":40,"time_elapsed":245970,"internal_node_id":"0.0-19.7-1.7"},{"fined":false,"trial_type":"html-keyboard-response","trial_index":40,"time_elapsed":245970,"internal_node_id":"0.0-19.7-1.7"},{"rt":null,"stimulus":"<div style=\"background-color:#6dce98\"><h1 style=\"background-color:MediumSeaGreen\" >You earned 100 coins! Well done!</h1><div style=\"background-color:#6dce98\"><h1 style=\"background-color:MediumSeaGreen\" >Only 1250 left to go!</h1><img id=\"box\" src=\"img/prizes/coins2.png\"></img><img id=\"box\" src=\"img/empty/greenopenbox.png\"></img></div>","key_press":null,"trial_type":"html-keyboard-response","trial_index":40,"time_elapsed":248971,"internal_node_id":"0.0-19.7-1.7"},{"rt":266.1800000005169,"stimulus":"<p>Choose a box,</p>","button_pressed":1,"trial_type":"html-button-response","trial_index":41,"time_elapsed":249239,"internal_node_id":"0.0-19.8-0.8"},{"reward":100,"trial_type":"html-keyboard-response","trial_index":42,"time_elapsed":249239,"internal_node_id":"0.0-19.8-1.8"},{"penalty":1250,"trial_type":"html-keyboard-response","trial_index":42,"time_elapsed":249239,"internal_node_id":"0.0-19.8-1.8"},{"fined":false,"trial_type":"html-keyboard-response","trial_index":42,"time_elapsed":249239,"internal_node_id":"0.0-19.8-1.8"},{"rt":null,"stimulus":"<div style=\"background-color:#6dce98\"><h1 style=\"background-color:MediumSeaGreen\" >You earned 100 coins! Well done!</h1><div style=\"background-color:#6dce98\"><h1 style=\"background-color:MediumSeaGreen\" >Only 1150 left to go!</h1><img id=\"box\" src=\"img/prizes/coins2.png\"></img><img id=\"box\" src=\"img/empty/greenopenbox.png\"></img></div>","key_press":null,"trial_type":"html-keyboard-response","trial_index":42,"time_elapsed":252242,"internal_node_id":"0.0-19.8-1.8"},{"rt":417.9949999998207,"stimulus":"<p>Choose a box,</p>","button_pressed":1,"trial_type":"html-button-response","trial_index":43,"time_elapsed":252662,"internal_node_id":"0.0-19.9-0.9"},{"reward":100,"trial_type":"html-keyboard-response","trial_index":44,"time_elapsed":252663,"internal_node_id":"0.0-19.9-1.9"},{"penalty":1250,"trial_type":"html-keyboard-response","trial_index":44,"time_elapsed":252663,"internal_node_id":"0.0-19.9-1.9"},{"fined":false,"trial_type":"html-keyboard-response","trial_index":44,"time_elapsed":252663,"internal_node_id":"0.0-19.9-1.9"},{"rt":null,"stimulus":"<div style=\"background-color:#6dce98\"><h1 style=\"background-color:MediumSeaGreen\" >You earned 100 coins! Well done!</h1><div style=\"background-color:#6dce98\"><h1 style=\"background-color:MediumSeaGreen\" >Only 1050 left to go!</h1><img id=\"box\" src=\"img/prizes/coins2.png\"></img><img id=\"box\" src=\"img/empty/greenopenbox.png\"></img></div>","key_press":null,"trial_type":"html-keyboard-response","trial_index":44,"time_elapsed":255665,"internal_node_id":"0.0-19.9-1.9"},{"rt":127.45499999981257,"stimulus":"<p>Choose a box,</p>","button_pressed":1,"trial_type":"html-button-response","trial_index":45,"time_elapsed":255795,"internal_node_id":"0.0-19.10-0.10"},{"reward":100,"trial_type":"html-keyboard-response","trial_index":46,"time_elapsed":255795,"internal_node_id":"0.0-19.10-1.10"},{"penalty":1250,"trial_type":"html-keyboard-response","trial_index":46,"time_elapsed":255795,"internal_node_id":"0.0-19.10-1.10"},{"fined":false,"trial_type":"html-keyboard-response","trial_index":46,"time_elapsed":255795,"internal_node_id":"0.0-19.10-1.10"},{"rt":null,"stimulus":"<div style=\"background-color:#6dce98\"><h1 style=\"background-color:MediumSeaGreen\" >You earned 100 coins! Well done!</h1><div style=\"background-color:#6dce98\"><h1 style=\"background-color:MediumSeaGreen\" >Only 950 left to go!</h1><img id=\"box\" src=\"img/prizes/coins2.png\"></img><img id=\"box\" src=\"img/empty/greenopenbox.png\"></img></div>","key_press":null,"trial_type":"html-keyboard-response","trial_index":46,"time_elapsed":258798,"internal_node_id":"0.0-19.10-1.10"},{"rt":271.70999999908963,"stimulus":"<p>Choose a box,</p>","button_pressed":1,"trial_type":"html-button-response","trial_index":47,"time_elapsed":259070,"internal_node_id":"0.0-19.11-0.11"},{"reward":100,"trial_type":"html-keyboard-response","trial_index":48,"time_elapsed":259070,"internal_node_id":"0.0-19.11-1.11"},{"penalty":1250,"trial_type":"html-keyboard-response","trial_index":48,"time_elapsed":259070,"internal_node_id":"0.0-19.11-1.11"},{"fined":false,"trial_type":"html-keyboard-response","trial_index":48,"time_elapsed":259070,"internal_node_id":"0.0-19.11-1.11"},{"rt":null,"stimulus":"<div style=\"background-color:#6dce98\"><h1 style=\"background-color:MediumSeaGreen\" >You earned 100 coins! Well done!</h1><div style=\"background-color:#6dce98\"><h1 style=\"background-color:MediumSeaGreen\" >Only 850 left to go!</h1><img id=\"box\" src=\"img/prizes/coins2.png\"></img><img id=\"box\" src=\"img/empty/greenopenbox.png\"></img></div>","key_press":null,"trial_type":"html-keyboard-response","trial_index":48,"time_elapsed":262080,"internal_node_id":"0.0-19.11-1.11"},{"rt":137.8349999995553,"stimulus":"<p>Choose a box,</p>","button_pressed":1,"trial_type":"html-button-response","trial_index":49,"time_elapsed":262220,"internal_node_id":"0.0-19.12-0.12"},{"reward":100,"trial_type":"html-keyboard-response","trial_index":50,"time_elapsed":262221,"internal_node_id":"0.0-19.12-1.12"},{"penalty":1250,"trial_type":"html-keyboard-response","trial_index":50,"time_elapsed":262221,"internal_node_id":"0.0-19.12-1.12"},{"fined":false,"trial_type":"html-keyboard-response","trial_index":50,"time_elapsed":262221,"internal_node_id":"0.0-19.12-1.12"},{"rt":null,"stimulus":"<div style=\"background-color:#6dce98\"><h1 style=\"background-color:MediumSeaGreen\" >You earned 100 coins! Well done!</h1><div style=\"background-color:#6dce98\"><h1 style=\"background-color:MediumSeaGreen\" >Only 750 left to go!</h1><img id=\"box\" src=\"img/prizes/coins2.png\"></img><img id=\"box\" src=\"img/empty/greenopenbox.png\"></img></div>","key_press":null,"trial_type":"html-keyboard-response","trial_index":50,"time_elapsed":265222,"internal_node_id":"0.0-19.12-1.12"},{"rt":279.4149999990477,"stimulus":"<p>Choose a box,</p>","button_pressed":1,"trial_type":"html-button-response","trial_index":51,"time_elapsed":265503,"internal_node_id":"0.0-19.13-0.13"},{"reward":100,"trial_type":"html-keyboard-response","trial_index":52,"time_elapsed":265504,"internal_node_id":"0.0-19.13-1.13"},{"penalty":1250,"trial_type":"html-keyboard-response","trial_index":52,"time_elapsed":265504,"internal_node_id":"0.0-19.13-1.13"},{"fined":false,"trial_type":"html-keyboard-response","trial_index":52,"time_elapsed":265504,"internal_node_id":"0.0-19.13-1.13"},{"rt":null,"stimulus":"<div style=\"background-color:#6dce98\"><h1 style=\"background-color:MediumSeaGreen\" >You earned 100 coins! Well done!</h1><div style=\"background-color:#6dce98\"><h1 style=\"background-color:MediumSeaGreen\" >Only 650 left to go!</h1><img id=\"box\" src=\"img/prizes/coins2.png\"></img><img id=\"box\" src=\"img/empty/greenopenbox.png\"></img></div>","key_press":null,"trial_type":"html-keyboard-response","trial_index":52,"time_elapsed":268506,"internal_node_id":"0.0-19.13-1.13"},{"rt":370.7149999990943,"stimulus":"<p>Choose a box,</p>","button_pressed":1,"trial_type":"html-button-response","trial_index":53,"time_elapsed":268878,"internal_node_id":"0.0-19.14-0.14"},{"reward":100,"trial_type":"html-keyboard-response","trial_index":54,"time_elapsed":268878,"internal_node_id":"0.0-19.14-1.14"},{"penalty":1250,"trial_type":"html-keyboard-response","trial_index":54,"time_elapsed":268878,"internal_node_id":"0.0-19.14-1.14"},{"fined":false,"trial_type":"html-keyboard-response","trial_index":54,"time_elapsed":268878,"internal_node_id":"0.0-19.14-1.14"},{"rt":null,"stimulus":"<div style=\"background-color:#6dce98\"><h1 style=\"background-color:MediumSeaGreen\" >You earned 100 coins! Well done!</h1><div style=\"background-color:#6dce98\"><h1 style=\"background-color:MediumSeaGreen\" >Only 550 left to go!</h1><img id=\"box\" src=\"img/prizes/coins2.png\"></img><img id=\"box\" src=\"img/empty/greenopenbox.png\"></img></div>","key_press":null,"trial_type":"html-keyboard-response","trial_index":54,"time_elapsed":271880,"internal_node_id":"0.0-19.14-1.14"},{"rt":270.62999999907333,"stimulus":"<p>Choose a box,</p>","button_pressed":1,"trial_type":"html-button-response","trial_index":55,"time_elapsed":272152,"internal_node_id":"0.0-19.15-0.15"},{"reward":100,"trial_type":"html-keyboard-response","trial_index":56,"time_elapsed":272152,"internal_node_id":"0.0-19.15-1.15"},{"penalty":1250,"trial_type":"html-keyboard-response","trial_index":56,"time_elapsed":272152,"internal_node_id":"0.0-19.15-1.15"},{"fined":false,"trial_type":"html-keyboard-response","trial_index":56,"time_elapsed":272152,"internal_node_id":"0.0-19.15-1.15"},{"rt":null,"stimulus":"<div style=\"background-color:#6dce98\"><h1 style=\"background-color:MediumSeaGreen\" >You earned 100 coins! Well done!</h1><div style=\"background-color:#6dce98\"><h1 style=\"background-color:MediumSeaGreen\" >Only 450 left to go!</h1><img id=\"box\" src=\"img/prizes/coins2.png\"></img><img id=\"box\" src=\"img/empty/greenopenbox.png\"></img></div>","key_press":null,"trial_type":"html-keyboard-response","trial_index":56,"time_elapsed":275155,"internal_node_id":"0.0-19.15-1.15"},{"rt":364.6449999996694,"stimulus":"<p>Choose a box,</p>","button_pressed":1,"trial_type":"html-button-response","trial_index":57,"time_elapsed":275521,"internal_node_id":"0.0-19.16-0.16"},{"reward":100,"trial_type":"html-keyboard-response","trial_index":58,"time_elapsed":275522,"internal_node_id":"0.0-19.16-1.16"},{"penalty":1250,"trial_type":"html-keyboard-response","trial_index":58,"time_elapsed":275522,"internal_node_id":"0.0-19.16-1.16"},{"fined":false,"trial_type":"html-keyboard-response","trial_index":58,"time_elapsed":275522,"internal_node_id":"0.0-19.16-1.16"},{"rt":null,"stimulus":"<div style=\"background-color:#6dce98\"><h1 style=\"background-color:MediumSeaGreen\" >You earned 100 coins! Well done!</h1><div style=\"background-color:#6dce98\"><h1 style=\"background-color:MediumSeaGreen\" >Only 350 left to go!</h1><img id=\"box\" src=\"img/prizes/coins2.png\"></img><img id=\"box\" src=\"img/empty/greenopenbox.png\"></img></div>","key_press":null,"trial_type":"html-keyboard-response","trial_index":58,"time_elapsed":278523,"internal_node_id":"0.0-19.16-1.16"},{"rt":334.6949999995413,"stimulus":"<p>Choose a box,</p>","button_pressed":1,"trial_type":"html-button-response","trial_index":59,"time_elapsed":278860,"internal_node_id":"0.0-19.17-0.17"},{"reward":100,"trial_type":"html-keyboard-response","trial_index":60,"time_elapsed":278860,"internal_node_id":"0.0-19.17-1.17"},{"penalty":1250,"trial_type":"html-keyboard-response","trial_index":60,"time_elapsed":278860,"internal_node_id":"0.0-19.17-1.17"},{"fined":false,"trial_type":"html-keyboard-response","trial_index":60,"time_elapsed":278860,"internal_node_id":"0.0-19.17-1.17"},{"rt":null,"stimulus":"<div style=\"background-color:#6dce98\"><h1 style=\"background-color:MediumSeaGreen\" >You earned 100 coins! Well done!</h1><div style=\"background-color:#6dce98\"><h1 style=\"background-color:MediumSeaGreen\" >Only 250 left to go!</h1><img id=\"box\" src=\"img/prizes/coins2.png\"></img><img id=\"box\" src=\"img/empty/greenopenbox.png\"></img></div>","key_press":null,"trial_type":"html-keyboard-response","trial_index":60,"time_elapsed":281863,"internal_node_id":"0.0-19.17-1.17"},{"rt":364.9900000000489,"stimulus":"<p>Choose a box,</p>","button_pressed":1,"trial_type":"html-button-response","trial_index":61,"time_elapsed":282229,"internal_node_id":"0.0-19.18-0.18"},{"reward":100,"trial_type":"html-keyboard-response","trial_index":62,"time_elapsed":282230,"internal_node_id":"0.0-19.18-1.18"},{"penalty":1250,"trial_type":"html-keyboard-response","trial_index":62,"time_elapsed":282230,"internal_node_id":"0.0-19.18-1.18"},{"fined":false,"trial_type":"html-keyboard-response","trial_index":62,"time_elapsed":282230,"internal_node_id":"0.0-19.18-1.18"},{"rt":null,"stimulus":"<div style=\"background-color:#6dce98\"><h1 style=\"background-color:MediumSeaGreen\" >You earned 100 coins! Well done!</h1><div style=\"background-color:#6dce98\"><h1 style=\"background-color:MediumSeaGreen\" >Only 150 left to go!</h1><img id=\"box\" src=\"img/prizes/coins2.png\"></img><img id=\"box\" src=\"img/empty/greenopenbox.png\"></img></div>","key_press":null,"trial_type":"html-keyboard-response","trial_index":62,"time_elapsed":285232,"internal_node_id":"0.0-19.18-1.18"},{"rt":248.48500000004424,"stimulus":"<p>Choose a box,</p>","button_pressed":1,"trial_type":"html-button-response","trial_index":63,"time_elapsed":285482,"internal_node_id":"0.0-19.19-0.19"},{"reward":100,"trial_type":"html-keyboard-response","trial_index":64,"time_elapsed":285483,"internal_node_id":"0.0-19.19-1.19"},{"penalty":1250,"trial_type":"html-keyboard-response","trial_index":64,"time_elapsed":285483,"internal_node_id":"0.0-19.19-1.19"},{"fined":false,"trial_type":"html-keyboard-response","trial_index":64,"time_elapsed":285483,"internal_node_id":"0.0-19.19-1.19"},{"rt":null,"stimulus":"<div style=\"background-color:#6dce98\"><h1 style=\"background-color:MediumSeaGreen\" >You earned 100 coins! Well done!</h1><div style=\"background-color:#6dce98\"><h1 style=\"background-color:MediumSeaGreen\" >Only 50 left to go!</h1><img id=\"box\" src=\"img/prizes/coins2.png\"></img><img id=\"box\" src=\"img/empty/greenopenbox.png\"></img></div>","key_press":null,"trial_type":"html-keyboard-response","trial_index":64,"time_elapsed":288484,"internal_node_id":"0.0-19.19-1.19"},{"rt":267.82500000082655,"stimulus":"<p>Choose a box,</p>","button_pressed":1,"trial_type":"html-button-response","trial_index":65,"time_elapsed":288752,"internal_node_id":"0.0-19.20-0.20"},{"reward":100,"trial_type":"html-keyboard-response","trial_index":66,"time_elapsed":288753,"internal_node_id":"0.0-19.20-1.20"},{"penalty":1250,"trial_type":"html-keyboard-response","trial_index":66,"time_elapsed":288753,"internal_node_id":"0.0-19.20-1.20"},{"fined":false,"trial_type":"html-keyboard-response","trial_index":66,"time_elapsed":288753,"internal_node_id":"0.0-19.20-1.20"},{"rt":null,"stimulus":"<div style=\"background-color:#6dce98\"><h1 style=\"background-color:MediumSeaGreen\" >You earned 100 coins! Well done!</h1><div style=\"background-color:#6dce98\"><h1 style=\"background-color:MediumSeaGreen\" >Only -50 left to go!</h1><img id=\"box\" src=\"img/prizes/coins2.png\"></img><img id=\"box\" src=\"img/empty/greenopenbox.png\"></img></div>","key_press":null,"trial_type":"html-keyboard-response","trial_index":66,"time_elapsed":291755,"internal_node_id":"0.0-19.20-1.20"},{"rt":17048.135000000882,"responses":"{\"Q0\":\"really dont know\",\"Q1\":\"almost always green\"}","trial_type":"survey-text","trial_index":67,"time_elapsed":308811,"internal_node_id":"0.0-20.0"}]