[{"view_history":"[{\"page_index\":0,\"viewing_time\":48618},{\"page_index\":1,\"viewing_time\":22872},{\"page_index\":2,\"viewing_time\":3336},{\"page_index\":3,\"viewing_time\":18481},{\"page_index\":4,\"viewing_time\":12579},{\"page_index\":5,\"viewing_time\":3859}]","rt":109745,"trial_type":"instructions","trial_index":0,"time_elapsed":109747,"internal_node_id":"0.0-0.0"},{"rt":10098,"responses":"{\"Q0\":\"Yes\",\"Q1\":\"Yes\",\"Q2\":\"Yes\"}","question_order":"[0,1,2]","trial_type":"survey-multi-choice","trial_index":1,"time_elapsed":119848,"internal_node_id":"0.0-1.0-0.0"},{"rt":13506,"responses":"{\"Q0\":\"Yes\",\"Q1\":\"Yes\",\"Q2\":\"Yes\"}","question_order":"[0,1,2]","trial_type":"survey-multi-choice","trial_index":2,"time_elapsed":133356,"internal_node_id":"0.0-2.0-0.0"},{"rt":13949,"responses":"{\"Q0\":\"5ffc3db4e2e31f000895b073\"}","trial_type":"survey-text","trial_index":3,"time_elapsed":147307,"internal_node_id":"0.0-3.0"},{"rt":9225,"responses":"{\"Q0\":\"Male\",\"Q1\":\"18-25\"}","question_order":"[0,1]","trial_type":"survey-multi-choice","trial_index":4,"time_elapsed":156533,"internal_node_id":"0.0-4.0"},{"rt":12973,"responses":"{\"Q0\":\"\"}","trial_type":"survey-text","trial_index":5,"time_elapsed":169507,"internal_node_id":"0.0-5.0"},{"view_history":"[{\"page_index\":0,\"viewing_time\":7903}]","rt":7903,"trial_type":"instructions","trial_index":6,"time_elapsed":177411,"internal_node_id":"0.0-6.0"},{"rt":35045,"responses":"{\"Interested\":2,\"Distressed\":2,\"Excited\":2,\"Upset\":1}","question_order":"[0,1,2,3]","trial_type":"survey-likert","trial_index":7,"time_elapsed":212458,"internal_node_id":"0.0-7.0"},{"rt":19454,"responses":"{\"Strong\":3,\"Guilty\":3,\"Scared\":3,\"Hostile\":0}","question_order":"[0,1,2,3]","trial_type":"survey-likert","trial_index":8,"time_elapsed":231913,"internal_node_id":"0.0-8.0"},{"rt":10659,"responses":"{\"Enthusiastic\":3,\"Proud\":1,\"Irritable\":1,\"Alert\":0}","question_order":"[0,1,2,3]","trial_type":"survey-likert","trial_index":9,"time_elapsed":242572,"internal_node_id":"0.0-9.0"},{"rt":11331,"responses":"{\"Ashamed\":2,\"Inspired\":2,\"Nervous\":3,\"Determined\":3}","question_order":"[0,1,2,3]","trial_type":"survey-likert","trial_index":10,"time_elapsed":253904,"internal_node_id":"0.0-10.0"},{"rt":16064,"responses":"{\"Attentive\":2,\"Jittery\":1,\"Active\":3,\"Afraid\":3}","question_order":"[0,1,2,3]","trial_type":"survey-likert","trial_index":11,"time_elapsed":269970,"internal_node_id":"0.0-11.0"},{"rt":26751,"responses":"{\"Q0\":1,\"Q1\":1,\"Q2\":1,\"Q3\":0}","question_order":"[0,1,2,3]","trial_type":"survey-likert","trial_index":12,"time_elapsed":296722,"internal_node_id":"0.0-12.0"},{"rt":26726,"responses":"{\"Q0\":1,\"Q1\":2,\"Q2\":1,\"Q3\":0}","question_order":"[0,1,2,3]","trial_type":"survey-likert","trial_index":13,"time_elapsed":323450,"internal_node_id":"0.0-13.0"},{"rt":16335,"responses":"{\"Q0\":1,\"Q1\":1,\"Q2\":1,\"Q3\":0}","question_order":"[0,1,2,3]","trial_type":"survey-likert","trial_index":14,"time_elapsed":339787,"internal_node_id":"0.0-14.0"},{"rt":11538,"responses":"{\"Q0\":0,\"Q1\":0,\"Q2\":1}","question_order":"[0,1,2]","trial_type":"survey-likert","trial_index":15,"time_elapsed":351326,"internal_node_id":"0.0-15.0"},{"view_history":"[{\"page_index\":0,\"viewing_time\":3988},{\"page_index\":1,\"viewing_time\":16381},{\"page_index\":2,\"viewing_time\":13697}]","rt":34066,"trial_type":"instructions","trial_index":16,"time_elapsed":385394,"internal_node_id":"0.0-16.0"},{"rt":1124,"stimulus":"<p>Choose a box,</p>","button_pressed":0,"trial_type":"html-button-response","trial_index":17,"time_elapsed":386519,"internal_node_id":"0.0-17.0-0.0"},{"reward":100,"trial_type":"html-keyboard-response","trial_index":18,"time_elapsed":386519,"internal_node_id":"0.0-17.0-1.0"},{"penalty":250,"trial_type":"html-keyboard-response","trial_index":18,"time_elapsed":386519,"internal_node_id":"0.0-17.0-1.0"},{"fined":true,"trial_type":"html-keyboard-response","trial_index":18,"time_elapsed":386519,"internal_node_id":"0.0-17.0-1.0"},{"rt":null,"stimulus":"<div style=\"background-color:#ff7157\"><h1 style=\"background-color:MediumSeaGreen\">You earned 100 coins</h1><h1 h1 style=\"background-color:Tomato\">but you have recieved a fine of 250 coins</h1><h1 style=\"background-color:Tomato\">Remember, you need to keep going until you have 3000 coins!</h1><img id=\"box\" src=\"img/prizes/250.png\"></img><img id=\"box\" src=\"img/sad/blueopenboxsadthumb.png\"></img></div>","key_press":null,"trial_type":"html-keyboard-response","trial_index":18,"time_elapsed":389528,"internal_node_id":"0.0-17.0-1.0"},{"rt":3597,"stimulus":"<p>Choose a box,</p>","button_pressed":1,"trial_type":"html-button-response","trial_index":19,"time_elapsed":393125,"internal_node_id":"0.0-17.0-0.1"},{"reward":100,"trial_type":"html-keyboard-response","trial_index":20,"time_elapsed":393125,"internal_node_id":"0.0-17.0-1.1"},{"penalty":1250,"trial_type":"html-keyboard-response","trial_index":20,"time_elapsed":393125,"internal_node_id":"0.0-17.0-1.1"},{"fined":false,"trial_type":"html-keyboard-response","trial_index":20,"time_elapsed":393125,"internal_node_id":"0.0-17.0-1.1"},{"rt":null,"stimulus":"<div style=\"background-color:#6dce98\"><h1 style=\"background-color:MediumSeaGreen\" >You earned 100 coins! Well done!</h1><div style=\"background-color:#6dce98\"><h1 style=\"background-color:MediumSeaGreen\" >Only 1550 left to go!</h1><img id=\"box\" src=\"img/prizes/coins2.png\"></img><img id=\"box\" src=\"img/empty/greenopenbox.png\"></img></div>","key_press":null,"trial_type":"html-keyboard-response","trial_index":20,"time_elapsed":396132,"internal_node_id":"0.0-17.0-1.1"},{"rt":1592,"stimulus":"<p>Choose a box,</p>","button_pressed":2,"trial_type":"html-button-response","trial_index":21,"time_elapsed":397725,"internal_node_id":"0.0-17.0-0.2"},{"reward":50,"trial_type":"html-keyboard-response","trial_index":22,"time_elapsed":397725,"internal_node_id":"0.0-17.0-1.2"},{"penalty":50,"trial_type":"html-keyboard-response","trial_index":22,"time_elapsed":397726,"internal_node_id":"0.0-17.0-1.2"},{"fined":false,"trial_type":"html-keyboard-response","trial_index":22,"time_elapsed":397726,"internal_node_id":"0.0-17.0-1.2"},{"rt":null,"stimulus":"<div style=\"background-color:#6dce98\"><h1 style=\"background-color:MediumSeaGreen\" >You earned 50 coins! Well done!</h1><div style=\"background-color:#6dce98\"><h1 style=\"background-color:MediumSeaGreen\" >Only 1500 left to go!</h1><img id=\"box\" src=\"img/prizes/coins.png\"></img><img id=\"box\" src=\"img/empty/purpleopenbox.png\"></img></div>","key_press":null,"trial_type":"html-keyboard-response","trial_index":22,"time_elapsed":400733,"internal_node_id":"0.0-17.0-1.2"},{"view_history":"[{\"page_index\":0,\"viewing_time\":13598}]","rt":13598,"trial_type":"instructions","trial_index":23,"time_elapsed":414333,"internal_node_id":"0.0-18.0"},{"rt":959,"stimulus":"<p>Choose a box,</p>","button_pressed":3,"trial_type":"html-button-response","trial_index":24,"time_elapsed":415293,"internal_node_id":"0.0-19.0-0.0"},{"reward":50,"trial_type":"html-keyboard-response","trial_index":25,"time_elapsed":415293,"internal_node_id":"0.0-19.0-1.0"},{"penalty":250,"trial_type":"html-keyboard-response","trial_index":25,"time_elapsed":415293,"internal_node_id":"0.0-19.0-1.0"},{"fined":false,"trial_type":"html-keyboard-response","trial_index":25,"time_elapsed":415293,"internal_node_id":"0.0-19.0-1.0"},{"rt":null,"stimulus":"<div style=\"background-color:#6dce98\"><h1 style=\"background-color:MediumSeaGreen\" >You earned 50 coins! Well done!</h1><div style=\"background-color:#6dce98\"><h1 style=\"background-color:MediumSeaGreen\" >Only 1450 left to go!</h1><img id=\"box\" src=\"img/prizes/coins.png\"></img><img id=\"box\" src=\"img/empty/redopenbox.png\"></img></div>","key_press":null,"trial_type":"html-keyboard-response","trial_index":25,"time_elapsed":418298,"internal_node_id":"0.0-19.0-1.0"},{"rt":622,"stimulus":"<p>Choose a box,</p>","button_pressed":2,"trial_type":"html-button-response","trial_index":26,"time_elapsed":418922,"internal_node_id":"0.0-19.1-0.1"},{"reward":50,"trial_type":"html-keyboard-response","trial_index":27,"time_elapsed":418922,"internal_node_id":"0.0-19.1-1.1"},{"penalty":50,"trial_type":"html-keyboard-response","trial_index":27,"time_elapsed":418922,"internal_node_id":"0.0-19.1-1.1"},{"fined":false,"trial_type":"html-keyboard-response","trial_index":27,"time_elapsed":418922,"internal_node_id":"0.0-19.1-1.1"},{"rt":null,"stimulus":"<div style=\"background-color:#6dce98\"><h1 style=\"background-color:MediumSeaGreen\" >You earned 50 coins! Well done!</h1><div style=\"background-color:#6dce98\"><h1 style=\"background-color:MediumSeaGreen\" >Only 1400 left to go!</h1><img id=\"box\" src=\"img/prizes/coins.png\"></img><img id=\"box\" src=\"img/empty/purpleopenbox.png\"></img></div>","key_press":null,"trial_type":"html-keyboard-response","trial_index":27,"time_elapsed":421938,"internal_node_id":"0.0-19.1-1.1"},{"rt":463,"stimulus":"<p>Choose a box,</p>","button_pressed":1,"trial_type":"html-button-response","trial_index":28,"time_elapsed":422402,"internal_node_id":"0.0-19.2-0.2"},{"reward":100,"trial_type":"html-keyboard-response","trial_index":29,"time_elapsed":422402,"internal_node_id":"0.0-19.2-1.2"},{"penalty":1250,"trial_type":"html-keyboard-response","trial_index":29,"time_elapsed":422402,"internal_node_id":"0.0-19.2-1.2"},{"fined":false,"trial_type":"html-keyboard-response","trial_index":29,"time_elapsed":422402,"internal_node_id":"0.0-19.2-1.2"},{"rt":null,"stimulus":"<div style=\"background-color:#6dce98\"><h1 style=\"background-color:MediumSeaGreen\" >You earned 100 coins! Well done!</h1><div style=\"background-color:#6dce98\"><h1 style=\"background-color:MediumSeaGreen\" >Only 1300 left to go!</h1><img id=\"box\" src=\"img/prizes/coins2.png\"></img><img id=\"box\" src=\"img/empty/greenopenbox.png\"></img></div>","key_press":null,"trial_type":"html-keyboard-response","trial_index":29,"time_elapsed":425419,"internal_node_id":"0.0-19.2-1.2"},{"rt":162,"stimulus":"<p>Choose a box,</p>","button_pressed":0,"trial_type":"html-button-response","trial_index":30,"time_elapsed":425582,"internal_node_id":"0.0-19.3-0.3"},{"reward":100,"trial_type":"html-keyboard-response","trial_index":31,"time_elapsed":425582,"internal_node_id":"0.0-19.3-1.3"},{"penalty":250,"trial_type":"html-keyboard-response","trial_index":31,"time_elapsed":425582,"internal_node_id":"0.0-19.3-1.3"},{"fined":true,"trial_type":"html-keyboard-response","trial_index":31,"time_elapsed":425582,"internal_node_id":"0.0-19.3-1.3"},{"rt":null,"stimulus":"<div style=\"background-color:#ff7157\"><h1 style=\"background-color:MediumSeaGreen\">You earned 100 coins</h1><h1 h1 style=\"background-color:Tomato\">but you have recieved a fine of 250 coins</h1><h1 style=\"background-color:Tomato\">Remember, you need to keep going until you have 3000 coins!</h1><img id=\"box\" src=\"img/prizes/250.png\"></img><img id=\"box\" src=\"img/sad/blueopenboxsadthumb.png\"></img></div>","key_press":null,"trial_type":"html-keyboard-response","trial_index":31,"time_elapsed":428595,"internal_node_id":"0.0-19.3-1.3"},{"rt":2896,"stimulus":"<p>Choose a box,</p>","button_pressed":1,"trial_type":"html-button-response","trial_index":32,"time_elapsed":431494,"internal_node_id":"0.0-19.4-0.4"},{"reward":100,"trial_type":"html-keyboard-response","trial_index":33,"time_elapsed":431494,"internal_node_id":"0.0-19.4-1.4"},{"penalty":1250,"trial_type":"html-keyboard-response","trial_index":33,"time_elapsed":431494,"internal_node_id":"0.0-19.4-1.4"},{"fined":false,"trial_type":"html-keyboard-response","trial_index":33,"time_elapsed":431494,"internal_node_id":"0.0-19.4-1.4"},{"rt":null,"stimulus":"<div style=\"background-color:#6dce98\"><h1 style=\"background-color:MediumSeaGreen\" >You earned 100 coins! Well done!</h1><div style=\"background-color:#6dce98\"><h1 style=\"background-color:MediumSeaGreen\" >Only 1350 left to go!</h1><img id=\"box\" src=\"img/prizes/coins2.png\"></img><img id=\"box\" src=\"img/empty/greenopenbox.png\"></img></div>","key_press":null,"trial_type":"html-keyboard-response","trial_index":33,"time_elapsed":434509,"internal_node_id":"0.0-19.4-1.4"},{"rt":446,"stimulus":"<p>Choose a box,</p>","button_pressed":1,"trial_type":"html-button-response","trial_index":34,"time_elapsed":434956,"internal_node_id":"0.0-19.5-0.5"},{"reward":100,"trial_type":"html-keyboard-response","trial_index":35,"time_elapsed":434956,"internal_node_id":"0.0-19.5-1.5"},{"penalty":1250,"trial_type":"html-keyboard-response","trial_index":35,"time_elapsed":434956,"internal_node_id":"0.0-19.5-1.5"},{"fined":false,"trial_type":"html-keyboard-response","trial_index":35,"time_elapsed":434956,"internal_node_id":"0.0-19.5-1.5"},{"rt":null,"stimulus":"<div style=\"background-color:#6dce98\"><h1 style=\"background-color:MediumSeaGreen\" >You earned 100 coins! Well done!</h1><div style=\"background-color:#6dce98\"><h1 style=\"background-color:MediumSeaGreen\" >Only 1250 left to go!</h1><img id=\"box\" src=\"img/prizes/coins2.png\"></img><img id=\"box\" src=\"img/empty/greenopenbox.png\"></img></div>","key_press":null,"trial_type":"html-keyboard-response","trial_index":35,"time_elapsed":437970,"internal_node_id":"0.0-19.5-1.5"},{"rt":388,"stimulus":"<p>Choose a box,</p>","button_pressed":1,"trial_type":"html-button-response","trial_index":36,"time_elapsed":438361,"internal_node_id":"0.0-19.6-0.6"},{"reward":100,"trial_type":"html-keyboard-response","trial_index":37,"time_elapsed":438361,"internal_node_id":"0.0-19.6-1.6"},{"penalty":1250,"trial_type":"html-keyboard-response","trial_index":37,"time_elapsed":438361,"internal_node_id":"0.0-19.6-1.6"},{"fined":false,"trial_type":"html-keyboard-response","trial_index":37,"time_elapsed":438361,"internal_node_id":"0.0-19.6-1.6"},{"rt":null,"stimulus":"<div style=\"background-color:#6dce98\"><h1 style=\"background-color:MediumSeaGreen\" >You earned 100 coins! Well done!</h1><div style=\"background-color:#6dce98\"><h1 style=\"background-color:MediumSeaGreen\" >Only 1150 left to go!</h1><img id=\"box\" src=\"img/prizes/coins2.png\"></img><img id=\"box\" src=\"img/empty/greenopenbox.png\"></img></div>","key_press":null,"trial_type":"html-keyboard-response","trial_index":37,"time_elapsed":441376,"internal_node_id":"0.0-19.6-1.6"},{"rt":413,"stimulus":"<p>Choose a box,</p>","button_pressed":1,"trial_type":"html-button-response","trial_index":38,"time_elapsed":441789,"internal_node_id":"0.0-19.7-0.7"},{"reward":100,"trial_type":"html-keyboard-response","trial_index":39,"time_elapsed":441789,"internal_node_id":"0.0-19.7-1.7"},{"penalty":1250,"trial_type":"html-keyboard-response","trial_index":39,"time_elapsed":441789,"internal_node_id":"0.0-19.7-1.7"},{"fined":true,"trial_type":"html-keyboard-response","trial_index":39,"time_elapsed":441790,"internal_node_id":"0.0-19.7-1.7"},{"rt":null,"stimulus":"<div style=\"background-color:#ff7157\"><h1 style=\"background-color:MediumSeaGreen\">You earned 100 coins</h1><h1 h1 style=\"background-color:Tomato\">but you have recieved a fine of 1250 coins</h1><h1 style=\"background-color:Tomato\">Remember, you need to keep going until you have 3000 coins!</h1><img id=\"box\" src=\"img/prizes/1250.png\"></img><img id=\"box\" src=\"img/sad/greenopenboxsadthumb.png\"></img></div>","key_press":null,"trial_type":"html-keyboard-response","trial_index":39,"time_elapsed":444800,"internal_node_id":"0.0-19.7-1.7"},{"rt":1539,"stimulus":"<p>Choose a box,</p>","button_pressed":2,"trial_type":"html-button-response","trial_index":40,"time_elapsed":446341,"internal_node_id":"0.0-19.8-0.8"},{"reward":50,"trial_type":"html-keyboard-response","trial_index":41,"time_elapsed":446341,"internal_node_id":"0.0-19.8-1.8"},{"penalty":50,"trial_type":"html-keyboard-response","trial_index":41,"time_elapsed":446341,"internal_node_id":"0.0-19.8-1.8"},{"fined":false,"trial_type":"html-keyboard-response","trial_index":41,"time_elapsed":446341,"internal_node_id":"0.0-19.8-1.8"},{"rt":null,"stimulus":"<div style=\"background-color:#6dce98\"><h1 style=\"background-color:MediumSeaGreen\" >You earned 50 coins! Well done!</h1><div style=\"background-color:#6dce98\"><h1 style=\"background-color:MediumSeaGreen\" >Only 2250 left to go!</h1><img id=\"box\" src=\"img/prizes/coins.png\"></img><img id=\"box\" src=\"img/empty/purpleopenbox.png\"></img></div>","key_press":null,"trial_type":"html-keyboard-response","trial_index":41,"time_elapsed":449349,"internal_node_id":"0.0-19.8-1.8"},{"rt":556,"stimulus":"<p>Choose a box,</p>","button_pressed":3,"trial_type":"html-button-response","trial_index":42,"time_elapsed":449906,"internal_node_id":"0.0-19.9-0.9"},{"reward":50,"trial_type":"html-keyboard-response","trial_index":43,"time_elapsed":449907,"internal_node_id":"0.0-19.9-1.9"},{"penalty":250,"trial_type":"html-keyboard-response","trial_index":43,"time_elapsed":449907,"internal_node_id":"0.0-19.9-1.9"},{"fined":false,"trial_type":"html-keyboard-response","trial_index":43,"time_elapsed":449907,"internal_node_id":"0.0-19.9-1.9"},{"rt":null,"stimulus":"<div style=\"background-color:#6dce98\"><h1 style=\"background-color:MediumSeaGreen\" >You earned 50 coins! Well done!</h1><div style=\"background-color:#6dce98\"><h1 style=\"background-color:MediumSeaGreen\" >Only 2200 left to go!</h1><img id=\"box\" src=\"img/prizes/coins.png\"></img><img id=\"box\" src=\"img/empty/redopenbox.png\"></img></div>","key_press":null,"trial_type":"html-keyboard-response","trial_index":43,"time_elapsed":452918,"internal_node_id":"0.0-19.9-1.9"},{"rt":461,"stimulus":"<p>Choose a box,</p>","button_pressed":2,"trial_type":"html-button-response","trial_index":44,"time_elapsed":453381,"internal_node_id":"0.0-19.10-0.10"},{"reward":50,"trial_type":"html-keyboard-response","trial_index":45,"time_elapsed":453381,"internal_node_id":"0.0-19.10-1.10"},{"penalty":50,"trial_type":"html-keyboard-response","trial_index":45,"time_elapsed":453381,"internal_node_id":"0.0-19.10-1.10"},{"fined":true,"trial_type":"html-keyboard-response","trial_index":45,"time_elapsed":453381,"internal_node_id":"0.0-19.10-1.10"},{"rt":null,"stimulus":"<div style=\"background-color:#ff7157\"><h1 style=\"background-color:MediumSeaGreen\">You earned 50 coins</h1><h1 h1 style=\"background-color:Tomato\">but you have recieved a fine of 50 coins</h1><h1 style=\"background-color:Tomato\">Remember, you need to keep going until you have 3000 coins!</h1><img id=\"box\" src=\"img/prizes/50.png\"></img><img id=\"box\" src=\"img/sad/purpleopenboxsadthumb.png\"></img></div>","key_press":null,"trial_type":"html-keyboard-response","trial_index":45,"time_elapsed":456385,"internal_node_id":"0.0-19.10-1.10"},{"rt":1096,"stimulus":"<p>Choose a box,</p>","button_pressed":3,"trial_type":"html-button-response","trial_index":46,"time_elapsed":457482,"internal_node_id":"0.0-19.11-0.11"},{"reward":50,"trial_type":"html-keyboard-response","trial_index":47,"time_elapsed":457482,"internal_node_id":"0.0-19.11-1.11"},{"penalty":250,"trial_type":"html-keyboard-response","trial_index":47,"time_elapsed":457482,"internal_node_id":"0.0-19.11-1.11"},{"fined":false,"trial_type":"html-keyboard-response","trial_index":47,"time_elapsed":457482,"internal_node_id":"0.0-19.11-1.11"},{"rt":null,"stimulus":"<div style=\"background-color:#6dce98\"><h1 style=\"background-color:MediumSeaGreen\" >You earned 50 coins! Well done!</h1><div style=\"background-color:#6dce98\"><h1 style=\"background-color:MediumSeaGreen\" >Only 2150 left to go!</h1><img id=\"box\" src=\"img/prizes/coins.png\"></img><img id=\"box\" src=\"img/empty/redopenbox.png\"></img></div>","key_press":null,"trial_type":"html-keyboard-response","trial_index":47,"time_elapsed":460494,"internal_node_id":"0.0-19.11-1.11"},{"rt":381,"stimulus":"<p>Choose a box,</p>","button_pressed":3,"trial_type":"html-button-response","trial_index":48,"time_elapsed":460877,"internal_node_id":"0.0-19.12-0.12"},{"reward":50,"trial_type":"html-keyboard-response","trial_index":49,"time_elapsed":460877,"internal_node_id":"0.0-19.12-1.12"},{"penalty":250,"trial_type":"html-keyboard-response","trial_index":49,"time_elapsed":460877,"internal_node_id":"0.0-19.12-1.12"},{"fined":false,"trial_type":"html-keyboard-response","trial_index":49,"time_elapsed":460877,"internal_node_id":"0.0-19.12-1.12"},{"rt":null,"stimulus":"<div style=\"background-color:#6dce98\"><h1 style=\"background-color:MediumSeaGreen\" >You earned 50 coins! Well done!</h1><div style=\"background-color:#6dce98\"><h1 style=\"background-color:MediumSeaGreen\" >Only 2100 left to go!</h1><img id=\"box\" src=\"img/prizes/coins.png\"></img><img id=\"box\" src=\"img/empty/redopenbox.png\"></img></div>","key_press":null,"trial_type":"html-keyboard-response","trial_index":49,"time_elapsed":463889,"internal_node_id":"0.0-19.12-1.12"},{"rt":204,"stimulus":"<p>Choose a box,</p>","button_pressed":1,"trial_type":"html-button-response","trial_index":50,"time_elapsed":464095,"internal_node_id":"0.0-19.13-0.13"},{"reward":100,"trial_type":"html-keyboard-response","trial_index":51,"time_elapsed":464096,"internal_node_id":"0.0-19.13-1.13"},{"penalty":1250,"trial_type":"html-keyboard-response","trial_index":51,"time_elapsed":464096,"internal_node_id":"0.0-19.13-1.13"},{"fined":false,"trial_type":"html-keyboard-response","trial_index":51,"time_elapsed":464096,"internal_node_id":"0.0-19.13-1.13"},{"rt":null,"stimulus":"<div style=\"background-color:#6dce98\"><h1 style=\"background-color:MediumSeaGreen\" >You earned 100 coins! Well done!</h1><div style=\"background-color:#6dce98\"><h1 style=\"background-color:MediumSeaGreen\" >Only 2000 left to go!</h1><img id=\"box\" src=\"img/prizes/coins2.png\"></img><img id=\"box\" src=\"img/empty/greenopenbox.png\"></img></div>","key_press":null,"trial_type":"html-keyboard-response","trial_index":51,"time_elapsed":467099,"internal_node_id":"0.0-19.13-1.13"},{"rt":396,"stimulus":"<p>Choose a box,</p>","button_pressed":2,"trial_type":"html-button-response","trial_index":52,"time_elapsed":467497,"internal_node_id":"0.0-19.14-0.14"},{"reward":50,"trial_type":"html-keyboard-response","trial_index":53,"time_elapsed":467497,"internal_node_id":"0.0-19.14-1.14"},{"penalty":50,"trial_type":"html-keyboard-response","trial_index":53,"time_elapsed":467497,"internal_node_id":"0.0-19.14-1.14"},{"fined":true,"trial_type":"html-keyboard-response","trial_index":53,"time_elapsed":467497,"internal_node_id":"0.0-19.14-1.14"},{"rt":null,"stimulus":"<div style=\"background-color:#ff7157\"><h1 style=\"background-color:MediumSeaGreen\">You earned 50 coins</h1><h1 h1 style=\"background-color:Tomato\">but you have recieved a fine of 50 coins</h1><h1 style=\"background-color:Tomato\">Remember, you need to keep going until you have 3000 coins!</h1><img id=\"box\" src=\"img/prizes/50.png\"></img><img id=\"box\" src=\"img/sad/purpleopenboxsadthumb.png\"></img></div>","key_press":null,"trial_type":"html-keyboard-response","trial_index":53,"time_elapsed":470509,"internal_node_id":"0.0-19.14-1.14"},{"rt":323,"stimulus":"<p>Choose a box,</p>","button_pressed":3,"trial_type":"html-button-response","trial_index":54,"time_elapsed":470834,"internal_node_id":"0.0-19.15-0.15"},{"reward":50,"trial_type":"html-keyboard-response","trial_index":55,"time_elapsed":470834,"internal_node_id":"0.0-19.15-1.15"},{"penalty":250,"trial_type":"html-keyboard-response","trial_index":55,"time_elapsed":470834,"internal_node_id":"0.0-19.15-1.15"},{"fined":false,"trial_type":"html-keyboard-response","trial_index":55,"time_elapsed":470834,"internal_node_id":"0.0-19.15-1.15"},{"rt":null,"stimulus":"<div style=\"background-color:#6dce98\"><h1 style=\"background-color:MediumSeaGreen\" >You earned 50 coins! Well done!</h1><div style=\"background-color:#6dce98\"><h1 style=\"background-color:MediumSeaGreen\" >Only 1950 left to go!</h1><img id=\"box\" src=\"img/prizes/coins.png\"></img><img id=\"box\" src=\"img/empty/redopenbox.png\"></img></div>","key_press":null,"trial_type":"html-keyboard-response","trial_index":55,"time_elapsed":473840,"internal_node_id":"0.0-19.15-1.15"},{"rt":378,"stimulus":"<p>Choose a box,</p>","button_pressed":1,"trial_type":"html-button-response","trial_index":56,"time_elapsed":474220,"internal_node_id":"0.0-19.16-0.16"},{"reward":100,"trial_type":"html-keyboard-response","trial_index":57,"time_elapsed":474221,"internal_node_id":"0.0-19.16-1.16"},{"penalty":1250,"trial_type":"html-keyboard-response","trial_index":57,"time_elapsed":474221,"internal_node_id":"0.0-19.16-1.16"},{"fined":false,"trial_type":"html-keyboard-response","trial_index":57,"time_elapsed":474221,"internal_node_id":"0.0-19.16-1.16"},{"rt":null,"stimulus":"<div style=\"background-color:#6dce98\"><h1 style=\"background-color:MediumSeaGreen\" >You earned 100 coins! Well done!</h1><div style=\"background-color:#6dce98\"><h1 style=\"background-color:MediumSeaGreen\" >Only 1850 left to go!</h1><img id=\"box\" src=\"img/prizes/coins2.png\"></img><img id=\"box\" src=\"img/empty/greenopenbox.png\"></img></div>","key_press":null,"trial_type":"html-keyboard-response","trial_index":57,"time_elapsed":477227,"internal_node_id":"0.0-19.16-1.16"},{"rt":480,"stimulus":"<p>Choose a box,</p>","button_pressed":1,"trial_type":"html-button-response","trial_index":58,"time_elapsed":477709,"internal_node_id":"0.0-19.17-0.17"},{"reward":100,"trial_type":"html-keyboard-response","trial_index":59,"time_elapsed":477709,"internal_node_id":"0.0-19.17-1.17"},{"penalty":1250,"trial_type":"html-keyboard-response","trial_index":59,"time_elapsed":477709,"internal_node_id":"0.0-19.17-1.17"},{"fined":false,"trial_type":"html-keyboard-response","trial_index":59,"time_elapsed":477709,"internal_node_id":"0.0-19.17-1.17"},{"rt":null,"stimulus":"<div style=\"background-color:#6dce98\"><h1 style=\"background-color:MediumSeaGreen\" >You earned 100 coins! Well done!</h1><div style=\"background-color:#6dce98\"><h1 style=\"background-color:MediumSeaGreen\" >Only 1750 left to go!</h1><img id=\"box\" src=\"img/prizes/coins2.png\"></img><img id=\"box\" src=\"img/empty/greenopenbox.png\"></img></div>","key_press":null,"trial_type":"html-keyboard-response","trial_index":59,"time_elapsed":480711,"internal_node_id":"0.0-19.17-1.17"},{"rt":383,"stimulus":"<p>Choose a box,</p>","button_pressed":1,"trial_type":"html-button-response","trial_index":60,"time_elapsed":481096,"internal_node_id":"0.0-19.18-0.18"},{"reward":100,"trial_type":"html-keyboard-response","trial_index":61,"time_elapsed":481096,"internal_node_id":"0.0-19.18-1.18"},{"penalty":1250,"trial_type":"html-keyboard-response","trial_index":61,"time_elapsed":481096,"internal_node_id":"0.0-19.18-1.18"},{"fined":true,"trial_type":"html-keyboard-response","trial_index":61,"time_elapsed":481096,"internal_node_id":"0.0-19.18-1.18"},{"rt":null,"stimulus":"<div style=\"background-color:#ff7157\"><h1 style=\"background-color:MediumSeaGreen\">You earned 100 coins</h1><h1 h1 style=\"background-color:Tomato\">but you have recieved a fine of 1250 coins</h1><h1 style=\"background-color:Tomato\">Remember, you need to keep going until you have 3000 coins!</h1><img id=\"box\" src=\"img/prizes/1250.png\"></img><img id=\"box\" src=\"img/sad/greenopenboxsadthumb.png\"></img></div>","key_press":null,"trial_type":"html-keyboard-response","trial_index":61,"time_elapsed":484109,"internal_node_id":"0.0-19.18-1.18"},{"rt":885,"stimulus":"<p>Choose a box,</p>","button_pressed":3,"trial_type":"html-button-response","trial_index":62,"time_elapsed":484995,"internal_node_id":"0.0-19.19-0.19"},{"reward":50,"trial_type":"html-keyboard-response","trial_index":63,"time_elapsed":484995,"internal_node_id":"0.0-19.19-1.19"},{"penalty":250,"trial_type":"html-keyboard-response","trial_index":63,"time_elapsed":484995,"internal_node_id":"0.0-19.19-1.19"},{"fined":false,"trial_type":"html-keyboard-response","trial_index":63,"time_elapsed":484995,"internal_node_id":"0.0-19.19-1.19"},{"rt":null,"stimulus":"<div style=\"background-color:#6dce98\"><h1 style=\"background-color:MediumSeaGreen\" >You earned 50 coins! Well done!</h1><div style=\"background-color:#6dce98\"><h1 style=\"background-color:MediumSeaGreen\" >Only 2850 left to go!</h1><img id=\"box\" src=\"img/prizes/coins.png\"></img><img id=\"box\" src=\"img/empty/redopenbox.png\"></img></div>","key_press":null,"trial_type":"html-keyboard-response","trial_index":63,"time_elapsed":488003,"internal_node_id":"0.0-19.19-1.19"},{"rt":395,"stimulus":"<p>Choose a box,</p>","button_pressed":3,"trial_type":"html-button-response","trial_index":64,"time_elapsed":488400,"internal_node_id":"0.0-19.20-0.20"},{"reward":50,"trial_type":"html-keyboard-response","trial_index":65,"time_elapsed":488400,"internal_node_id":"0.0-19.20-1.20"},{"penalty":250,"trial_type":"html-keyboard-response","trial_index":65,"time_elapsed":488400,"internal_node_id":"0.0-19.20-1.20"},{"fined":false,"trial_type":"html-keyboard-response","trial_index":65,"time_elapsed":488400,"internal_node_id":"0.0-19.20-1.20"},{"rt":null,"stimulus":"<div style=\"background-color:#6dce98\"><h1 style=\"background-color:MediumSeaGreen\" >You earned 50 coins! Well done!</h1><div style=\"background-color:#6dce98\"><h1 style=\"background-color:MediumSeaGreen\" >Only 2800 left to go!</h1><img id=\"box\" src=\"img/prizes/coins.png\"></img><img id=\"box\" src=\"img/empty/redopenbox.png\"></img></div>","key_press":null,"trial_type":"html-keyboard-response","trial_index":65,"time_elapsed":491402,"internal_node_id":"0.0-19.20-1.20"},{"rt":352,"stimulus":"<p>Choose a box,</p>","button_pressed":3,"trial_type":"html-button-response","trial_index":66,"time_elapsed":491757,"internal_node_id":"0.0-19.21-0.21"},{"reward":50,"trial_type":"html-keyboard-response","trial_index":67,"time_elapsed":491757,"internal_node_id":"0.0-19.21-1.21"},{"penalty":250,"trial_type":"html-keyboard-response","trial_index":67,"time_elapsed":491757,"internal_node_id":"0.0-19.21-1.21"},{"fined":false,"trial_type":"html-keyboard-response","trial_index":67,"time_elapsed":491757,"internal_node_id":"0.0-19.21-1.21"},{"rt":null,"stimulus":"<div style=\"background-color:#6dce98\"><h1 style=\"background-color:MediumSeaGreen\" >You earned 50 coins! Well done!</h1><div style=\"background-color:#6dce98\"><h1 style=\"background-color:MediumSeaGreen\" >Only 2750 left to go!</h1><img id=\"box\" src=\"img/prizes/coins.png\"></img><img id=\"box\" src=\"img/empty/redopenbox.png\"></img></div>","key_press":null,"trial_type":"html-keyboard-response","trial_index":67,"time_elapsed":494760,"internal_node_id":"0.0-19.21-1.21"},{"rt":851,"stimulus":"<p>Choose a box,</p>","button_pressed":2,"trial_type":"html-button-response","trial_index":68,"time_elapsed":495612,"internal_node_id":"0.0-19.22-0.22"},{"reward":50,"trial_type":"html-keyboard-response","trial_index":69,"time_elapsed":495612,"internal_node_id":"0.0-19.22-1.22"},{"penalty":50,"trial_type":"html-keyboard-response","trial_index":69,"time_elapsed":495612,"internal_node_id":"0.0-19.22-1.22"},{"fined":true,"trial_type":"html-keyboard-response","trial_index":69,"time_elapsed":495612,"internal_node_id":"0.0-19.22-1.22"},{"rt":null,"stimulus":"<div style=\"background-color:#ff7157\"><h1 style=\"background-color:MediumSeaGreen\">You earned 50 coins</h1><h1 h1 style=\"background-color:Tomato\">but you have recieved a fine of 50 coins</h1><h1 style=\"background-color:Tomato\">Remember, you need to keep going until you have 3000 coins!</h1><img id=\"box\" src=\"img/prizes/50.png\"></img><img id=\"box\" src=\"img/sad/purpleopenboxsadthumb.png\"></img></div>","key_press":null,"trial_type":"html-keyboard-response","trial_index":69,"time_elapsed":498624,"internal_node_id":"0.0-19.22-1.22"},{"rt":298,"stimulus":"<p>Choose a box,</p>","button_pressed":3,"trial_type":"html-button-response","trial_index":70,"time_elapsed":498923,"internal_node_id":"0.0-19.23-0.23"},{"reward":50,"trial_type":"html-keyboard-response","trial_index":71,"time_elapsed":498923,"internal_node_id":"0.0-19.23-1.23"},{"penalty":250,"trial_type":"html-keyboard-response","trial_index":71,"time_elapsed":498923,"internal_node_id":"0.0-19.23-1.23"},{"fined":false,"trial_type":"html-keyboard-response","trial_index":71,"time_elapsed":498923,"internal_node_id":"0.0-19.23-1.23"},{"rt":null,"stimulus":"<div style=\"background-color:#6dce98\"><h1 style=\"background-color:MediumSeaGreen\" >You earned 50 coins! Well done!</h1><div style=\"background-color:#6dce98\"><h1 style=\"background-color:MediumSeaGreen\" >Only 2700 left to go!</h1><img id=\"box\" src=\"img/prizes/coins.png\"></img><img id=\"box\" src=\"img/empty/redopenbox.png\"></img></div>","key_press":null,"trial_type":"html-keyboard-response","trial_index":71,"time_elapsed":501931,"internal_node_id":"0.0-19.23-1.23"},{"rt":503,"stimulus":"<p>Choose a box,</p>","button_pressed":3,"trial_type":"html-button-response","trial_index":72,"time_elapsed":502435,"internal_node_id":"0.0-19.24-0.24"},{"reward":50,"trial_type":"html-keyboard-response","trial_index":73,"time_elapsed":502435,"internal_node_id":"0.0-19.24-1.24"},{"penalty":250,"trial_type":"html-keyboard-response","trial_index":73,"time_elapsed":502435,"internal_node_id":"0.0-19.24-1.24"},{"fined":false,"trial_type":"html-keyboard-response","trial_index":73,"time_elapsed":502435,"internal_node_id":"0.0-19.24-1.24"},{"rt":null,"stimulus":"<div style=\"background-color:#6dce98\"><h1 style=\"background-color:MediumSeaGreen\" >You earned 50 coins! Well done!</h1><div style=\"background-color:#6dce98\"><h1 style=\"background-color:MediumSeaGreen\" >Only 2650 left to go!</h1><img id=\"box\" src=\"img/prizes/coins.png\"></img><img id=\"box\" src=\"img/empty/redopenbox.png\"></img></div>","key_press":null,"trial_type":"html-keyboard-response","trial_index":73,"time_elapsed":505444,"internal_node_id":"0.0-19.24-1.24"},{"rt":1479,"stimulus":"<p>Choose a box,</p>","button_pressed":3,"trial_type":"html-button-response","trial_index":74,"time_elapsed":506923,"internal_node_id":"0.0-19.25-0.25"},{"reward":50,"trial_type":"html-keyboard-response","trial_index":75,"time_elapsed":506923,"internal_node_id":"0.0-19.25-1.25"},{"penalty":250,"trial_type":"html-keyboard-response","trial_index":75,"time_elapsed":506923,"internal_node_id":"0.0-19.25-1.25"},{"fined":true,"trial_type":"html-keyboard-response","trial_index":75,"time_elapsed":506923,"internal_node_id":"0.0-19.25-1.25"},{"rt":null,"stimulus":"<div style=\"background-color:#ff7157\"><h1 style=\"background-color:MediumSeaGreen\">You earned 50 coins</h1><h1 h1 style=\"background-color:Tomato\">but you have recieved a fine of 250 coins</h1><h1 style=\"background-color:Tomato\">Remember, you need to keep going until you have 3000 coins!</h1><img id=\"box\" src=\"img/prizes/250.png\"></img><img id=\"box\" src=\"img/sad/redopenboxsadthumb.png\"></img></div>","key_press":null,"trial_type":"html-keyboard-response","trial_index":75,"time_elapsed":509929,"internal_node_id":"0.0-19.25-1.25"},{"rt":1358,"stimulus":"<p>Choose a box,</p>","button_pressed":0,"trial_type":"html-button-response","trial_index":76,"time_elapsed":511289,"internal_node_id":"0.0-19.26-0.26"},{"reward":100,"trial_type":"html-keyboard-response","trial_index":77,"time_elapsed":511289,"internal_node_id":"0.0-19.26-1.26"},{"penalty":250,"trial_type":"html-keyboard-response","trial_index":77,"time_elapsed":511289,"internal_node_id":"0.0-19.26-1.26"},{"fined":false,"trial_type":"html-keyboard-response","trial_index":77,"time_elapsed":511289,"internal_node_id":"0.0-19.26-1.26"},{"rt":null,"stimulus":"<div style=\"background-color:#6dce98\"><h1 style=\"background-color:MediumSeaGreen\" >You earned 100 coins! Well done!</h1><div style=\"background-color:#6dce98\"><h1 style=\"background-color:MediumSeaGreen\" >Only 2750 left to go!</h1><img id=\"box\" src=\"img/prizes/coins2.png\"></img><img id=\"box\" src=\"img/empty/blueopenbox.png\"></img></div>","key_press":null,"trial_type":"html-keyboard-response","trial_index":77,"time_elapsed":514295,"internal_node_id":"0.0-19.26-1.26"},{"rt":292,"stimulus":"<p>Choose a box,</p>","button_pressed":0,"trial_type":"html-button-response","trial_index":78,"time_elapsed":514588,"internal_node_id":"0.0-19.27-0.27"},{"reward":100,"trial_type":"html-keyboard-response","trial_index":79,"time_elapsed":514588,"internal_node_id":"0.0-19.27-1.27"},{"penalty":250,"trial_type":"html-keyboard-response","trial_index":79,"time_elapsed":514588,"internal_node_id":"0.0-19.27-1.27"},{"fined":false,"trial_type":"html-keyboard-response","trial_index":79,"time_elapsed":514588,"internal_node_id":"0.0-19.27-1.27"},{"rt":null,"stimulus":"<div style=\"background-color:#6dce98\"><h1 style=\"background-color:MediumSeaGreen\" >You earned 100 coins! Well done!</h1><div style=\"background-color:#6dce98\"><h1 style=\"background-color:MediumSeaGreen\" >Only 2650 left to go!</h1><img id=\"box\" src=\"img/prizes/coins2.png\"></img><img id=\"box\" src=\"img/empty/blueopenbox.png\"></img></div>","key_press":null,"trial_type":"html-keyboard-response","trial_index":79,"time_elapsed":517603,"internal_node_id":"0.0-19.27-1.27"},{"rt":220,"stimulus":"<p>Choose a box,</p>","button_pressed":0,"trial_type":"html-button-response","trial_index":80,"time_elapsed":517825,"internal_node_id":"0.0-19.28-0.28"},{"reward":100,"trial_type":"html-keyboard-response","trial_index":81,"time_elapsed":517825,"internal_node_id":"0.0-19.28-1.28"},{"penalty":250,"trial_type":"html-keyboard-response","trial_index":81,"time_elapsed":517825,"internal_node_id":"0.0-19.28-1.28"},{"fined":true,"trial_type":"html-keyboard-response","trial_index":81,"time_elapsed":517825,"internal_node_id":"0.0-19.28-1.28"},{"rt":null,"stimulus":"<div style=\"background-color:#ff7157\"><h1 style=\"background-color:MediumSeaGreen\">You earned 100 coins</h1><h1 h1 style=\"background-color:Tomato\">but you have recieved a fine of 250 coins</h1><h1 style=\"background-color:Tomato\">Remember, you need to keep going until you have 3000 coins!</h1><img id=\"box\" src=\"img/prizes/250.png\"></img><img id=\"box\" src=\"img/sad/blueopenboxsadthumb.png\"></img></div>","key_press":null,"trial_type":"html-keyboard-response","trial_index":81,"time_elapsed":520827,"internal_node_id":"0.0-19.28-1.28"},{"rt":1281,"stimulus":"<p>Choose a box,</p>","button_pressed":1,"trial_type":"html-button-response","trial_index":82,"time_elapsed":522109,"internal_node_id":"0.0-19.29-0.29"},{"reward":100,"trial_type":"html-keyboard-response","trial_index":83,"time_elapsed":522109,"internal_node_id":"0.0-19.29-1.29"},{"penalty":1250,"trial_type":"html-keyboard-response","trial_index":83,"time_elapsed":522109,"internal_node_id":"0.0-19.29-1.29"},{"fined":false,"trial_type":"html-keyboard-response","trial_index":83,"time_elapsed":522109,"internal_node_id":"0.0-19.29-1.29"},{"rt":null,"stimulus":"<div style=\"background-color:#6dce98\"><h1 style=\"background-color:MediumSeaGreen\" >You earned 100 coins! Well done!</h1><div style=\"background-color:#6dce98\"><h1 style=\"background-color:MediumSeaGreen\" >Only 2700 left to go!</h1><img id=\"box\" src=\"img/prizes/coins2.png\"></img><img id=\"box\" src=\"img/empty/greenopenbox.png\"></img></div>","key_press":null,"trial_type":"html-keyboard-response","trial_index":83,"time_elapsed":525115,"internal_node_id":"0.0-19.29-1.29"},{"rt":465,"stimulus":"<p>Choose a box,</p>","button_pressed":1,"trial_type":"html-button-response","trial_index":84,"time_elapsed":525582,"internal_node_id":"0.0-19.30-0.30"},{"reward":100,"trial_type":"html-keyboard-response","trial_index":85,"time_elapsed":525583,"internal_node_id":"0.0-19.30-1.30"},{"penalty":1250,"trial_type":"html-keyboard-response","trial_index":85,"time_elapsed":525583,"internal_node_id":"0.0-19.30-1.30"},{"fined":false,"trial_type":"html-keyboard-response","trial_index":85,"time_elapsed":525583,"internal_node_id":"0.0-19.30-1.30"},{"rt":null,"stimulus":"<div style=\"background-color:#6dce98\"><h1 style=\"background-color:MediumSeaGreen\" >You earned 100 coins! Well done!</h1><div style=\"background-color:#6dce98\"><h1 style=\"background-color:MediumSeaGreen\" >Only 2600 left to go!</h1><img id=\"box\" src=\"img/prizes/coins2.png\"></img><img id=\"box\" src=\"img/empty/greenopenbox.png\"></img></div>","key_press":null,"trial_type":"html-keyboard-response","trial_index":85,"time_elapsed":528591,"internal_node_id":"0.0-19.30-1.30"},{"rt":573,"stimulus":"<p>Choose a box,</p>","button_pressed":1,"trial_type":"html-button-response","trial_index":86,"time_elapsed":529166,"internal_node_id":"0.0-19.31-0.31"},{"reward":100,"trial_type":"html-keyboard-response","trial_index":87,"time_elapsed":529166,"internal_node_id":"0.0-19.31-1.31"},{"penalty":1250,"trial_type":"html-keyboard-response","trial_index":87,"time_elapsed":529166,"internal_node_id":"0.0-19.31-1.31"},{"fined":false,"trial_type":"html-keyboard-response","trial_index":87,"time_elapsed":529166,"internal_node_id":"0.0-19.31-1.31"},{"rt":null,"stimulus":"<div style=\"background-color:#6dce98\"><h1 style=\"background-color:MediumSeaGreen\" >You earned 100 coins! Well done!</h1><div style=\"background-color:#6dce98\"><h1 style=\"background-color:MediumSeaGreen\" >Only 2500 left to go!</h1><img id=\"box\" src=\"img/prizes/coins2.png\"></img><img id=\"box\" src=\"img/empty/greenopenbox.png\"></img></div>","key_press":null,"trial_type":"html-keyboard-response","trial_index":87,"time_elapsed":532170,"internal_node_id":"0.0-19.31-1.31"},{"rt":117,"stimulus":"<p>Choose a box,</p>","button_pressed":0,"trial_type":"html-button-response","trial_index":88,"time_elapsed":532289,"internal_node_id":"0.0-19.32-0.32"},{"reward":100,"trial_type":"html-keyboard-response","trial_index":89,"time_elapsed":532289,"internal_node_id":"0.0-19.32-1.32"},{"penalty":250,"trial_type":"html-keyboard-response","trial_index":89,"time_elapsed":532289,"internal_node_id":"0.0-19.32-1.32"},{"fined":false,"trial_type":"html-keyboard-response","trial_index":89,"time_elapsed":532289,"internal_node_id":"0.0-19.32-1.32"},{"rt":null,"stimulus":"<div style=\"background-color:#6dce98\"><h1 style=\"background-color:MediumSeaGreen\" >You earned 100 coins! Well done!</h1><div style=\"background-color:#6dce98\"><h1 style=\"background-color:MediumSeaGreen\" >Only 2400 left to go!</h1><img id=\"box\" src=\"img/prizes/coins2.png\"></img><img id=\"box\" src=\"img/empty/blueopenbox.png\"></img></div>","key_press":null,"trial_type":"html-keyboard-response","trial_index":89,"time_elapsed":535303,"internal_node_id":"0.0-19.32-1.32"},{"rt":593,"stimulus":"<p>Choose a box,</p>","button_pressed":0,"trial_type":"html-button-response","trial_index":90,"time_elapsed":535898,"internal_node_id":"0.0-19.33-0.33"},{"reward":100,"trial_type":"html-keyboard-response","trial_index":91,"time_elapsed":535898,"internal_node_id":"0.0-19.33-1.33"},{"penalty":250,"trial_type":"html-keyboard-response","trial_index":91,"time_elapsed":535898,"internal_node_id":"0.0-19.33-1.33"},{"fined":false,"trial_type":"html-keyboard-response","trial_index":91,"time_elapsed":535898,"internal_node_id":"0.0-19.33-1.33"},{"rt":null,"stimulus":"<div style=\"background-color:#6dce98\"><h1 style=\"background-color:MediumSeaGreen\" >You earned 100 coins! Well done!</h1><div style=\"background-color:#6dce98\"><h1 style=\"background-color:MediumSeaGreen\" >Only 2300 left to go!</h1><img id=\"box\" src=\"img/prizes/coins2.png\"></img><img id=\"box\" src=\"img/empty/blueopenbox.png\"></img></div>","key_press":null,"trial_type":"html-keyboard-response","trial_index":91,"time_elapsed":538905,"internal_node_id":"0.0-19.33-1.33"},{"rt":757,"stimulus":"<p>Choose a box,</p>","button_pressed":2,"trial_type":"html-button-response","trial_index":92,"time_elapsed":539664,"internal_node_id":"0.0-19.34-0.34"},{"reward":50,"trial_type":"html-keyboard-response","trial_index":93,"time_elapsed":539664,"internal_node_id":"0.0-19.34-1.34"},{"penalty":50,"trial_type":"html-keyboard-response","trial_index":93,"time_elapsed":539664,"internal_node_id":"0.0-19.34-1.34"},{"fined":false,"trial_type":"html-keyboard-response","trial_index":93,"time_elapsed":539664,"internal_node_id":"0.0-19.34-1.34"},{"rt":null,"stimulus":"<div style=\"background-color:#6dce98\"><h1 style=\"background-color:MediumSeaGreen\" >You earned 50 coins! Well done!</h1><div style=\"background-color:#6dce98\"><h1 style=\"background-color:MediumSeaGreen\" >Only 2250 left to go!</h1><img id=\"box\" src=\"img/prizes/coins.png\"></img><img id=\"box\" src=\"img/empty/purpleopenbox.png\"></img></div>","key_press":null,"trial_type":"html-keyboard-response","trial_index":93,"time_elapsed":542674,"internal_node_id":"0.0-19.34-1.34"},{"rt":176,"stimulus":"<p>Choose a box,</p>","button_pressed":2,"trial_type":"html-button-response","trial_index":94,"time_elapsed":542852,"internal_node_id":"0.0-19.35-0.35"},{"reward":50,"trial_type":"html-keyboard-response","trial_index":95,"time_elapsed":542852,"internal_node_id":"0.0-19.35-1.35"},{"penalty":50,"trial_type":"html-keyboard-response","trial_index":95,"time_elapsed":542852,"internal_node_id":"0.0-19.35-1.35"},{"fined":true,"trial_type":"html-keyboard-response","trial_index":95,"time_elapsed":542852,"internal_node_id":"0.0-19.35-1.35"},{"rt":null,"stimulus":"<div style=\"background-color:#ff7157\"><h1 style=\"background-color:MediumSeaGreen\">You earned 50 coins</h1><h1 h1 style=\"background-color:Tomato\">but you have recieved a fine of 50 coins</h1><h1 style=\"background-color:Tomato\">Remember, you need to keep going until you have 3000 coins!</h1><img id=\"box\" src=\"img/prizes/50.png\"></img><img id=\"box\" src=\"img/sad/purpleopenboxsadthumb.png\"></img></div>","key_press":null,"trial_type":"html-keyboard-response","trial_index":95,"time_elapsed":545859,"internal_node_id":"0.0-19.35-1.35"},{"rt":191,"stimulus":"<p>Choose a box,</p>","button_pressed":1,"trial_type":"html-button-response","trial_index":96,"time_elapsed":546049,"internal_node_id":"0.0-19.36-0.36"},{"reward":100,"trial_type":"html-keyboard-response","trial_index":97,"time_elapsed":546049,"internal_node_id":"0.0-19.36-1.36"},{"penalty":1250,"trial_type":"html-keyboard-response","trial_index":97,"time_elapsed":546049,"internal_node_id":"0.0-19.36-1.36"},{"fined":false,"trial_type":"html-keyboard-response","trial_index":97,"time_elapsed":546049,"internal_node_id":"0.0-19.36-1.36"},{"rt":null,"stimulus":"<div style=\"background-color:#6dce98\"><h1 style=\"background-color:MediumSeaGreen\" >You earned 100 coins! Well done!</h1><div style=\"background-color:#6dce98\"><h1 style=\"background-color:MediumSeaGreen\" >Only 2150 left to go!</h1><img id=\"box\" src=\"img/prizes/coins2.png\"></img><img id=\"box\" src=\"img/empty/greenopenbox.png\"></img></div>","key_press":null,"trial_type":"html-keyboard-response","trial_index":97,"time_elapsed":549058,"internal_node_id":"0.0-19.36-1.36"},{"rt":445,"stimulus":"<p>Choose a box,</p>","button_pressed":0,"trial_type":"html-button-response","trial_index":98,"time_elapsed":549505,"internal_node_id":"0.0-19.37-0.37"},{"reward":100,"trial_type":"html-keyboard-response","trial_index":99,"time_elapsed":549506,"internal_node_id":"0.0-19.37-1.37"},{"penalty":250,"trial_type":"html-keyboard-response","trial_index":99,"time_elapsed":549506,"internal_node_id":"0.0-19.37-1.37"},{"fined":false,"trial_type":"html-keyboard-response","trial_index":99,"time_elapsed":549506,"internal_node_id":"0.0-19.37-1.37"},{"rt":null,"stimulus":"<div style=\"background-color:#6dce98\"><h1 style=\"background-color:MediumSeaGreen\" >You earned 100 coins! Well done!</h1><div style=\"background-color:#6dce98\"><h1 style=\"background-color:MediumSeaGreen\" >Only 2050 left to go!</h1><img id=\"box\" src=\"img/prizes/coins2.png\"></img><img id=\"box\" src=\"img/empty/blueopenbox.png\"></img></div>","key_press":null,"trial_type":"html-keyboard-response","trial_index":99,"time_elapsed":552516,"internal_node_id":"0.0-19.37-1.37"},{"rt":823,"stimulus":"<p>Choose a box,</p>","button_pressed":0,"trial_type":"html-button-response","trial_index":100,"time_elapsed":553340,"internal_node_id":"0.0-19.38-0.38"},{"reward":100,"trial_type":"html-keyboard-response","trial_index":101,"time_elapsed":553340,"internal_node_id":"0.0-19.38-1.38"},{"penalty":250,"trial_type":"html-keyboard-response","trial_index":101,"time_elapsed":553340,"internal_node_id":"0.0-19.38-1.38"},{"fined":false,"trial_type":"html-keyboard-response","trial_index":101,"time_elapsed":553340,"internal_node_id":"0.0-19.38-1.38"},{"rt":null,"stimulus":"<div style=\"background-color:#6dce98\"><h1 style=\"background-color:MediumSeaGreen\" >You earned 100 coins! Well done!</h1><div style=\"background-color:#6dce98\"><h1 style=\"background-color:MediumSeaGreen\" >Only 1950 left to go!</h1><img id=\"box\" src=\"img/prizes/coins2.png\"></img><img id=\"box\" src=\"img/empty/blueopenbox.png\"></img></div>","key_press":null,"trial_type":"html-keyboard-response","trial_index":101,"time_elapsed":556352,"internal_node_id":"0.0-19.38-1.38"},{"rt":417,"stimulus":"<p>Choose a box,</p>","button_pressed":1,"trial_type":"html-button-response","trial_index":102,"time_elapsed":556769,"internal_node_id":"0.0-19.39-0.39"},{"reward":100,"trial_type":"html-keyboard-response","trial_index":103,"time_elapsed":556769,"internal_node_id":"0.0-19.39-1.39"},{"penalty":1250,"trial_type":"html-keyboard-response","trial_index":103,"time_elapsed":556769,"internal_node_id":"0.0-19.39-1.39"},{"fined":false,"trial_type":"html-keyboard-response","trial_index":103,"time_elapsed":556769,"internal_node_id":"0.0-19.39-1.39"},{"rt":null,"stimulus":"<div style=\"background-color:#6dce98\"><h1 style=\"background-color:MediumSeaGreen\" >You earned 100 coins! Well done!</h1><div style=\"background-color:#6dce98\"><h1 style=\"background-color:MediumSeaGreen\" >Only 1850 left to go!</h1><img id=\"box\" src=\"img/prizes/coins2.png\"></img><img id=\"box\" src=\"img/empty/greenopenbox.png\"></img></div>","key_press":null,"trial_type":"html-keyboard-response","trial_index":103,"time_elapsed":559780,"internal_node_id":"0.0-19.39-1.39"},{"rt":162,"stimulus":"<p>Choose a box,</p>","button_pressed":2,"trial_type":"html-button-response","trial_index":104,"time_elapsed":559944,"internal_node_id":"0.0-19.40-0.40"},{"reward":50,"trial_type":"html-keyboard-response","trial_index":105,"time_elapsed":559944,"internal_node_id":"0.0-19.40-1.40"},{"penalty":50,"trial_type":"html-keyboard-response","trial_index":105,"time_elapsed":559944,"internal_node_id":"0.0-19.40-1.40"},{"fined":false,"trial_type":"html-keyboard-response","trial_index":105,"time_elapsed":559944,"internal_node_id":"0.0-19.40-1.40"},{"rt":null,"stimulus":"<div style=\"background-color:#6dce98\"><h1 style=\"background-color:MediumSeaGreen\" >You earned 50 coins! Well done!</h1><div style=\"background-color:#6dce98\"><h1 style=\"background-color:MediumSeaGreen\" >Only 1800 left to go!</h1><img id=\"box\" src=\"img/prizes/coins.png\"></img><img id=\"box\" src=\"img/empty/purpleopenbox.png\"></img></div>","key_press":null,"trial_type":"html-keyboard-response","trial_index":105,"time_elapsed":562958,"internal_node_id":"0.0-19.40-1.40"},{"rt":570,"stimulus":"<p>Choose a box,</p>","button_pressed":2,"trial_type":"html-button-response","trial_index":106,"time_elapsed":563529,"internal_node_id":"0.0-19.41-0.41"},{"reward":50,"trial_type":"html-keyboard-response","trial_index":107,"time_elapsed":563529,"internal_node_id":"0.0-19.41-1.41"},{"penalty":50,"trial_type":"html-keyboard-response","trial_index":107,"time_elapsed":563529,"internal_node_id":"0.0-19.41-1.41"},{"fined":true,"trial_type":"html-keyboard-response","trial_index":107,"time_elapsed":563529,"internal_node_id":"0.0-19.41-1.41"},{"rt":null,"stimulus":"<div style=\"background-color:#ff7157\"><h1 style=\"background-color:MediumSeaGreen\">You earned 50 coins</h1><h1 h1 style=\"background-color:Tomato\">but you have recieved a fine of 50 coins</h1><h1 style=\"background-color:Tomato\">Remember, you need to keep going until you have 3000 coins!</h1><img id=\"box\" src=\"img/prizes/50.png\"></img><img id=\"box\" src=\"img/sad/purpleopenboxsadthumb.png\"></img></div>","key_press":null,"trial_type":"html-keyboard-response","trial_index":107,"time_elapsed":566542,"internal_node_id":"0.0-19.41-1.41"},{"rt":1035,"stimulus":"<p>Choose a box,</p>","button_pressed":1,"trial_type":"html-button-response","trial_index":108,"time_elapsed":567578,"internal_node_id":"0.0-19.42-0.42"},{"reward":100,"trial_type":"html-keyboard-response","trial_index":109,"time_elapsed":567578,"internal_node_id":"0.0-19.42-1.42"},{"penalty":1250,"trial_type":"html-keyboard-response","trial_index":109,"time_elapsed":567578,"internal_node_id":"0.0-19.42-1.42"},{"fined":false,"trial_type":"html-keyboard-response","trial_index":109,"time_elapsed":567578,"internal_node_id":"0.0-19.42-1.42"},{"rt":null,"stimulus":"<div style=\"background-color:#6dce98\"><h1 style=\"background-color:MediumSeaGreen\" >You earned 100 coins! Well done!</h1><div style=\"background-color:#6dce98\"><h1 style=\"background-color:MediumSeaGreen\" >Only 1700 left to go!</h1><img id=\"box\" src=\"img/prizes/coins2.png\"></img><img id=\"box\" src=\"img/empty/greenopenbox.png\"></img></div>","key_press":null,"trial_type":"html-keyboard-response","trial_index":109,"time_elapsed":570594,"internal_node_id":"0.0-19.42-1.42"},{"rt":215,"stimulus":"<p>Choose a box,</p>","button_pressed":1,"trial_type":"html-button-response","trial_index":110,"time_elapsed":570810,"internal_node_id":"0.0-19.43-0.43"},{"reward":100,"trial_type":"html-keyboard-response","trial_index":111,"time_elapsed":570810,"internal_node_id":"0.0-19.43-1.43"},{"penalty":1250,"trial_type":"html-keyboard-response","trial_index":111,"time_elapsed":570810,"internal_node_id":"0.0-19.43-1.43"},{"fined":false,"trial_type":"html-keyboard-response","trial_index":111,"time_elapsed":570810,"internal_node_id":"0.0-19.43-1.43"},{"rt":null,"stimulus":"<div style=\"background-color:#6dce98\"><h1 style=\"background-color:MediumSeaGreen\" >You earned 100 coins! Well done!</h1><div style=\"background-color:#6dce98\"><h1 style=\"background-color:MediumSeaGreen\" >Only 1600 left to go!</h1><img id=\"box\" src=\"img/prizes/coins2.png\"></img><img id=\"box\" src=\"img/empty/greenopenbox.png\"></img></div>","key_press":null,"trial_type":"html-keyboard-response","trial_index":111,"time_elapsed":573818,"internal_node_id":"0.0-19.43-1.43"},{"rt":312,"stimulus":"<p>Choose a box,</p>","button_pressed":0,"trial_type":"html-button-response","trial_index":112,"time_elapsed":574133,"internal_node_id":"0.0-19.44-0.44"},{"reward":100,"trial_type":"html-keyboard-response","trial_index":113,"time_elapsed":574133,"internal_node_id":"0.0-19.44-1.44"},{"penalty":250,"trial_type":"html-keyboard-response","trial_index":113,"time_elapsed":574133,"internal_node_id":"0.0-19.44-1.44"},{"fined":false,"trial_type":"html-keyboard-response","trial_index":113,"time_elapsed":574133,"internal_node_id":"0.0-19.44-1.44"},{"rt":null,"stimulus":"<div style=\"background-color:#6dce98\"><h1 style=\"background-color:MediumSeaGreen\" >You earned 100 coins! Well done!</h1><div style=\"background-color:#6dce98\"><h1 style=\"background-color:MediumSeaGreen\" >Only 1500 left to go!</h1><img id=\"box\" src=\"img/prizes/coins2.png\"></img><img id=\"box\" src=\"img/empty/blueopenbox.png\"></img></div>","key_press":null,"trial_type":"html-keyboard-response","trial_index":113,"time_elapsed":577141,"internal_node_id":"0.0-19.44-1.44"},{"rt":383,"stimulus":"<p>Choose a box,</p>","button_pressed":0,"trial_type":"html-button-response","trial_index":114,"time_elapsed":577526,"internal_node_id":"0.0-19.45-0.45"},{"reward":100,"trial_type":"html-keyboard-response","trial_index":115,"time_elapsed":577526,"internal_node_id":"0.0-19.45-1.45"},{"penalty":250,"trial_type":"html-keyboard-response","trial_index":115,"time_elapsed":577526,"internal_node_id":"0.0-19.45-1.45"},{"fined":false,"trial_type":"html-keyboard-response","trial_index":115,"time_elapsed":577526,"internal_node_id":"0.0-19.45-1.45"},{"rt":null,"stimulus":"<div style=\"background-color:#6dce98\"><h1 style=\"background-color:MediumSeaGreen\" >You earned 100 coins! Well done!</h1><div style=\"background-color:#6dce98\"><h1 style=\"background-color:MediumSeaGreen\" >Only 1400 left to go!</h1><img id=\"box\" src=\"img/prizes/coins2.png\"></img><img id=\"box\" src=\"img/empty/blueopenbox.png\"></img></div>","key_press":null,"trial_type":"html-keyboard-response","trial_index":115,"time_elapsed":580533,"internal_node_id":"0.0-19.45-1.45"},{"rt":393,"stimulus":"<p>Choose a box,</p>","button_pressed":2,"trial_type":"html-button-response","trial_index":116,"time_elapsed":580927,"internal_node_id":"0.0-19.46-0.46"},{"reward":50,"trial_type":"html-keyboard-response","trial_index":117,"time_elapsed":580927,"internal_node_id":"0.0-19.46-1.46"},{"penalty":50,"trial_type":"html-keyboard-response","trial_index":117,"time_elapsed":580927,"internal_node_id":"0.0-19.46-1.46"},{"fined":true,"trial_type":"html-keyboard-response","trial_index":117,"time_elapsed":580927,"internal_node_id":"0.0-19.46-1.46"},{"rt":null,"stimulus":"<div style=\"background-color:#ff7157\"><h1 style=\"background-color:MediumSeaGreen\">You earned 50 coins</h1><h1 h1 style=\"background-color:Tomato\">but you have recieved a fine of 50 coins</h1><h1 style=\"background-color:Tomato\">Remember, you need to keep going until you have 3000 coins!</h1><img id=\"box\" src=\"img/prizes/50.png\"></img><img id=\"box\" src=\"img/sad/purpleopenboxsadthumb.png\"></img></div>","key_press":null,"trial_type":"html-keyboard-response","trial_index":117,"time_elapsed":583939,"internal_node_id":"0.0-19.46-1.46"},{"rt":571,"stimulus":"<p>Choose a box,</p>","button_pressed":1,"trial_type":"html-button-response","trial_index":118,"time_elapsed":584511,"internal_node_id":"0.0-19.47-0.47"},{"reward":100,"trial_type":"html-keyboard-response","trial_index":119,"time_elapsed":584511,"internal_node_id":"0.0-19.47-1.47"},{"penalty":1250,"trial_type":"html-keyboard-response","trial_index":119,"time_elapsed":584511,"internal_node_id":"0.0-19.47-1.47"},{"fined":false,"trial_type":"html-keyboard-response","trial_index":119,"time_elapsed":584511,"internal_node_id":"0.0-19.47-1.47"},{"rt":null,"stimulus":"<div style=\"background-color:#6dce98\"><h1 style=\"background-color:MediumSeaGreen\" >You earned 100 coins! Well done!</h1><div style=\"background-color:#6dce98\"><h1 style=\"background-color:MediumSeaGreen\" >Only 1300 left to go!</h1><img id=\"box\" src=\"img/prizes/coins2.png\"></img><img id=\"box\" src=\"img/empty/greenopenbox.png\"></img></div>","key_press":null,"trial_type":"html-keyboard-response","trial_index":119,"time_elapsed":587517,"internal_node_id":"0.0-19.47-1.47"},{"rt":387,"stimulus":"<p>Choose a box,</p>","button_pressed":1,"trial_type":"html-button-response","trial_index":120,"time_elapsed":587905,"internal_node_id":"0.0-19.48-0.48"},{"reward":100,"trial_type":"html-keyboard-response","trial_index":121,"time_elapsed":587906,"internal_node_id":"0.0-19.48-1.48"},{"penalty":1250,"trial_type":"html-keyboard-response","trial_index":121,"time_elapsed":587906,"internal_node_id":"0.0-19.48-1.48"},{"fined":false,"trial_type":"html-keyboard-response","trial_index":121,"time_elapsed":587906,"internal_node_id":"0.0-19.48-1.48"},{"rt":null,"stimulus":"<div style=\"background-color:#6dce98\"><h1 style=\"background-color:MediumSeaGreen\" >You earned 100 coins! Well done!</h1><div style=\"background-color:#6dce98\"><h1 style=\"background-color:MediumSeaGreen\" >Only 1200 left to go!</h1><img id=\"box\" src=\"img/prizes/coins2.png\"></img><img id=\"box\" src=\"img/empty/greenopenbox.png\"></img></div>","key_press":null,"trial_type":"html-keyboard-response","trial_index":121,"time_elapsed":590911,"internal_node_id":"0.0-19.48-1.48"},{"rt":397,"stimulus":"<p>Choose a box,</p>","button_pressed":0,"trial_type":"html-button-response","trial_index":122,"time_elapsed":591309,"internal_node_id":"0.0-19.49-0.49"},{"reward":100,"trial_type":"html-keyboard-response","trial_index":123,"time_elapsed":591309,"internal_node_id":"0.0-19.49-1.49"},{"penalty":250,"trial_type":"html-keyboard-response","trial_index":123,"time_elapsed":591309,"internal_node_id":"0.0-19.49-1.49"},{"fined":true,"trial_type":"html-keyboard-response","trial_index":123,"time_elapsed":591309,"internal_node_id":"0.0-19.49-1.49"},{"rt":null,"stimulus":"<div style=\"background-color:#ff7157\"><h1 style=\"background-color:MediumSeaGreen\">You earned 100 coins</h1><h1 h1 style=\"background-color:Tomato\">but you have recieved a fine of 250 coins</h1><h1 style=\"background-color:Tomato\">Remember, you need to keep going until you have 3000 coins!</h1><img id=\"box\" src=\"img/prizes/250.png\"></img><img id=\"box\" src=\"img/sad/blueopenboxsadthumb.png\"></img></div>","key_press":null,"trial_type":"html-keyboard-response","trial_index":123,"time_elapsed":594321,"internal_node_id":"0.0-19.49-1.49"},{"rt":705,"stimulus":"<p>Choose a box,</p>","button_pressed":0,"trial_type":"html-button-response","trial_index":124,"time_elapsed":595026,"internal_node_id":"0.0-19.50-0.50"},{"reward":100,"trial_type":"html-keyboard-response","trial_index":125,"time_elapsed":595026,"internal_node_id":"0.0-19.50-1.50"},{"penalty":250,"trial_type":"html-keyboard-response","trial_index":125,"time_elapsed":595026,"internal_node_id":"0.0-19.50-1.50"},{"fined":false,"trial_type":"html-keyboard-response","trial_index":125,"time_elapsed":595026,"internal_node_id":"0.0-19.50-1.50"},{"rt":null,"stimulus":"<div style=\"background-color:#6dce98\"><h1 style=\"background-color:MediumSeaGreen\" >You earned 100 coins! Well done!</h1><div style=\"background-color:#6dce98\"><h1 style=\"background-color:MediumSeaGreen\" >Only 1250 left to go!</h1><img id=\"box\" src=\"img/prizes/coins2.png\"></img><img id=\"box\" src=\"img/empty/blueopenbox.png\"></img></div>","key_press":null,"trial_type":"html-keyboard-response","trial_index":125,"time_elapsed":598042,"internal_node_id":"0.0-19.50-1.50"},{"rt":236,"stimulus":"<p>Choose a box,</p>","button_pressed":1,"trial_type":"html-button-response","trial_index":126,"time_elapsed":598278,"internal_node_id":"0.0-19.51-0.51"},{"reward":100,"trial_type":"html-keyboard-response","trial_index":127,"time_elapsed":598278,"internal_node_id":"0.0-19.51-1.51"},{"penalty":1250,"trial_type":"html-keyboard-response","trial_index":127,"time_elapsed":598278,"internal_node_id":"0.0-19.51-1.51"},{"fined":false,"trial_type":"html-keyboard-response","trial_index":127,"time_elapsed":598278,"internal_node_id":"0.0-19.51-1.51"},{"rt":null,"stimulus":"<div style=\"background-color:#6dce98\"><h1 style=\"background-color:MediumSeaGreen\" >You earned 100 coins! Well done!</h1><div style=\"background-color:#6dce98\"><h1 style=\"background-color:MediumSeaGreen\" >Only 1150 left to go!</h1><img id=\"box\" src=\"img/prizes/coins2.png\"></img><img id=\"box\" src=\"img/empty/greenopenbox.png\"></img></div>","key_press":null,"trial_type":"html-keyboard-response","trial_index":127,"time_elapsed":601287,"internal_node_id":"0.0-19.51-1.51"},{"rt":384,"stimulus":"<p>Choose a box,</p>","button_pressed":0,"trial_type":"html-button-response","trial_index":128,"time_elapsed":601671,"internal_node_id":"0.0-19.52-0.52"},{"reward":100,"trial_type":"html-keyboard-response","trial_index":129,"time_elapsed":601671,"internal_node_id":"0.0-19.52-1.52"},{"penalty":250,"trial_type":"html-keyboard-response","trial_index":129,"time_elapsed":601671,"internal_node_id":"0.0-19.52-1.52"},{"fined":true,"trial_type":"html-keyboard-response","trial_index":129,"time_elapsed":601671,"internal_node_id":"0.0-19.52-1.52"},{"rt":null,"stimulus":"<div style=\"background-color:#ff7157\"><h1 style=\"background-color:MediumSeaGreen\">You earned 100 coins</h1><h1 h1 style=\"background-color:Tomato\">but you have recieved a fine of 250 coins</h1><h1 style=\"background-color:Tomato\">Remember, you need to keep going until you have 3000 coins!</h1><img id=\"box\" src=\"img/prizes/250.png\"></img><img id=\"box\" src=\"img/sad/blueopenboxsadthumb.png\"></img></div>","key_press":null,"trial_type":"html-keyboard-response","trial_index":129,"time_elapsed":604677,"internal_node_id":"0.0-19.52-1.52"},{"rt":431,"stimulus":"<p>Choose a box,</p>","button_pressed":1,"trial_type":"html-button-response","trial_index":130,"time_elapsed":605109,"internal_node_id":"0.0-19.53-0.53"},{"reward":100,"trial_type":"html-keyboard-response","trial_index":131,"time_elapsed":605109,"internal_node_id":"0.0-19.53-1.53"},{"penalty":1250,"trial_type":"html-keyboard-response","trial_index":131,"time_elapsed":605109,"internal_node_id":"0.0-19.53-1.53"},{"fined":false,"trial_type":"html-keyboard-response","trial_index":131,"time_elapsed":605109,"internal_node_id":"0.0-19.53-1.53"},{"rt":null,"stimulus":"<div style=\"background-color:#6dce98\"><h1 style=\"background-color:MediumSeaGreen\" >You earned 100 coins! Well done!</h1><div style=\"background-color:#6dce98\"><h1 style=\"background-color:MediumSeaGreen\" >Only 1200 left to go!</h1><img id=\"box\" src=\"img/prizes/coins2.png\"></img><img id=\"box\" src=\"img/empty/greenopenbox.png\"></img></div>","key_press":null,"trial_type":"html-keyboard-response","trial_index":131,"time_elapsed":608119,"internal_node_id":"0.0-19.53-1.53"},{"rt":294,"stimulus":"<p>Choose a box,</p>","button_pressed":1,"trial_type":"html-button-response","trial_index":132,"time_elapsed":608413,"internal_node_id":"0.0-19.54-0.54"},{"reward":100,"trial_type":"html-keyboard-response","trial_index":133,"time_elapsed":608413,"internal_node_id":"0.0-19.54-1.54"},{"penalty":1250,"trial_type":"html-keyboard-response","trial_index":133,"time_elapsed":608413,"internal_node_id":"0.0-19.54-1.54"},{"fined":false,"trial_type":"html-keyboard-response","trial_index":133,"time_elapsed":608413,"internal_node_id":"0.0-19.54-1.54"},{"rt":null,"stimulus":"<div style=\"background-color:#6dce98\"><h1 style=\"background-color:MediumSeaGreen\" >You earned 100 coins! Well done!</h1><div style=\"background-color:#6dce98\"><h1 style=\"background-color:MediumSeaGreen\" >Only 1100 left to go!</h1><img id=\"box\" src=\"img/prizes/coins2.png\"></img><img id=\"box\" src=\"img/empty/greenopenbox.png\"></img></div>","key_press":null,"trial_type":"html-keyboard-response","trial_index":133,"time_elapsed":611419,"internal_node_id":"0.0-19.54-1.54"},{"rt":386,"stimulus":"<p>Choose a box,</p>","button_pressed":1,"trial_type":"html-button-response","trial_index":134,"time_elapsed":611807,"internal_node_id":"0.0-19.55-0.55"},{"reward":100,"trial_type":"html-keyboard-response","trial_index":135,"time_elapsed":611807,"internal_node_id":"0.0-19.55-1.55"},{"penalty":1250,"trial_type":"html-keyboard-response","trial_index":135,"time_elapsed":611807,"internal_node_id":"0.0-19.55-1.55"},{"fined":false,"trial_type":"html-keyboard-response","trial_index":135,"time_elapsed":611807,"internal_node_id":"0.0-19.55-1.55"},{"rt":null,"stimulus":"<div style=\"background-color:#6dce98\"><h1 style=\"background-color:MediumSeaGreen\" >You earned 100 coins! Well done!</h1><div style=\"background-color:#6dce98\"><h1 style=\"background-color:MediumSeaGreen\" >Only 1000 left to go!</h1><img id=\"box\" src=\"img/prizes/coins2.png\"></img><img id=\"box\" src=\"img/empty/greenopenbox.png\"></img></div>","key_press":null,"trial_type":"html-keyboard-response","trial_index":135,"time_elapsed":614815,"internal_node_id":"0.0-19.55-1.55"},{"rt":420,"stimulus":"<p>Choose a box,</p>","button_pressed":2,"trial_type":"html-button-response","trial_index":136,"time_elapsed":615236,"internal_node_id":"0.0-19.56-0.56"},{"reward":50,"trial_type":"html-keyboard-response","trial_index":137,"time_elapsed":615236,"internal_node_id":"0.0-19.56-1.56"},{"penalty":50,"trial_type":"html-keyboard-response","trial_index":137,"time_elapsed":615236,"internal_node_id":"0.0-19.56-1.56"},{"fined":false,"trial_type":"html-keyboard-response","trial_index":137,"time_elapsed":615236,"internal_node_id":"0.0-19.56-1.56"},{"rt":null,"stimulus":"<div style=\"background-color:#6dce98\"><h1 style=\"background-color:MediumSeaGreen\" >You earned 50 coins! Well done!</h1><div style=\"background-color:#6dce98\"><h1 style=\"background-color:MediumSeaGreen\" >Only 950 left to go!</h1><img id=\"box\" src=\"img/prizes/coins.png\"></img><img id=\"box\" src=\"img/empty/purpleopenbox.png\"></img></div>","key_press":null,"trial_type":"html-keyboard-response","trial_index":137,"time_elapsed":618243,"internal_node_id":"0.0-19.56-1.56"},{"rt":402,"stimulus":"<p>Choose a box,</p>","button_pressed":2,"trial_type":"html-button-response","trial_index":138,"time_elapsed":618648,"internal_node_id":"0.0-19.57-0.57"},{"reward":50,"trial_type":"html-keyboard-response","trial_index":139,"time_elapsed":618648,"internal_node_id":"0.0-19.57-1.57"},{"penalty":50,"trial_type":"html-keyboard-response","trial_index":139,"time_elapsed":618648,"internal_node_id":"0.0-19.57-1.57"},{"fined":false,"trial_type":"html-keyboard-response","trial_index":139,"time_elapsed":618648,"internal_node_id":"0.0-19.57-1.57"},{"rt":null,"stimulus":"<div style=\"background-color:#6dce98\"><h1 style=\"background-color:MediumSeaGreen\" >You earned 50 coins! Well done!</h1><div style=\"background-color:#6dce98\"><h1 style=\"background-color:MediumSeaGreen\" >Only 900 left to go!</h1><img id=\"box\" src=\"img/prizes/coins.png\"></img><img id=\"box\" src=\"img/empty/purpleopenbox.png\"></img></div>","key_press":null,"trial_type":"html-keyboard-response","trial_index":139,"time_elapsed":621651,"internal_node_id":"0.0-19.57-1.57"},{"rt":352,"stimulus":"<p>Choose a box,</p>","button_pressed":2,"trial_type":"html-button-response","trial_index":140,"time_elapsed":622004,"internal_node_id":"0.0-19.58-0.58"},{"reward":50,"trial_type":"html-keyboard-response","trial_index":141,"time_elapsed":622004,"internal_node_id":"0.0-19.58-1.58"},{"penalty":50,"trial_type":"html-keyboard-response","trial_index":141,"time_elapsed":622004,"internal_node_id":"0.0-19.58-1.58"},{"fined":true,"trial_type":"html-keyboard-response","trial_index":141,"time_elapsed":622004,"internal_node_id":"0.0-19.58-1.58"},{"rt":null,"stimulus":"<div style=\"background-color:#ff7157\"><h1 style=\"background-color:MediumSeaGreen\">You earned 50 coins</h1><h1 h1 style=\"background-color:Tomato\">but you have recieved a fine of 50 coins</h1><h1 style=\"background-color:Tomato\">Remember, you need to keep going until you have 3000 coins!</h1><img id=\"box\" src=\"img/prizes/50.png\"></img><img id=\"box\" src=\"img/sad/purpleopenboxsadthumb.png\"></img></div>","key_press":null,"trial_type":"html-keyboard-response","trial_index":141,"time_elapsed":625015,"internal_node_id":"0.0-19.58-1.58"},{"rt":190,"stimulus":"<p>Choose a box,</p>","button_pressed":2,"trial_type":"html-button-response","trial_index":142,"time_elapsed":625208,"internal_node_id":"0.0-19.59-0.59"},{"reward":50,"trial_type":"html-keyboard-response","trial_index":143,"time_elapsed":625208,"internal_node_id":"0.0-19.59-1.59"},{"penalty":50,"trial_type":"html-keyboard-response","trial_index":143,"time_elapsed":625208,"internal_node_id":"0.0-19.59-1.59"},{"fined":false,"trial_type":"html-keyboard-response","trial_index":143,"time_elapsed":625208,"internal_node_id":"0.0-19.59-1.59"},{"rt":null,"stimulus":"<div style=\"background-color:#6dce98\"><h1 style=\"background-color:MediumSeaGreen\" >You earned 50 coins! Well done!</h1><div style=\"background-color:#6dce98\"><h1 style=\"background-color:MediumSeaGreen\" >Only 850 left to go!</h1><img id=\"box\" src=\"img/prizes/coins.png\"></img><img id=\"box\" src=\"img/empty/purpleopenbox.png\"></img></div>","key_press":null,"trial_type":"html-keyboard-response","trial_index":143,"time_elapsed":628218,"internal_node_id":"0.0-19.59-1.59"},{"rt":415,"stimulus":"<p>Choose a box,</p>","button_pressed":2,"trial_type":"html-button-response","trial_index":144,"time_elapsed":628633,"internal_node_id":"0.0-19.60-0.60"},{"reward":50,"trial_type":"html-keyboard-response","trial_index":145,"time_elapsed":628633,"internal_node_id":"0.0-19.60-1.60"},{"penalty":50,"trial_type":"html-keyboard-response","trial_index":145,"time_elapsed":628633,"internal_node_id":"0.0-19.60-1.60"},{"fined":true,"trial_type":"html-keyboard-response","trial_index":145,"time_elapsed":628633,"internal_node_id":"0.0-19.60-1.60"},{"rt":null,"stimulus":"<div style=\"background-color:#ff7157\"><h1 style=\"background-color:MediumSeaGreen\">You earned 50 coins</h1><h1 h1 style=\"background-color:Tomato\">but you have recieved a fine of 50 coins</h1><h1 style=\"background-color:Tomato\">Remember, you need to keep going until you have 3000 coins!</h1><img id=\"box\" src=\"img/prizes/50.png\"></img><img id=\"box\" src=\"img/sad/purpleopenboxsadthumb.png\"></img></div>","key_press":null,"trial_type":"html-keyboard-response","trial_index":145,"time_elapsed":631648,"internal_node_id":"0.0-19.60-1.60"},{"rt":658,"stimulus":"<p>Choose a box,</p>","button_pressed":2,"trial_type":"html-button-response","trial_index":146,"time_elapsed":632308,"internal_node_id":"0.0-19.61-0.61"},{"reward":50,"trial_type":"html-keyboard-response","trial_index":147,"time_elapsed":632308,"internal_node_id":"0.0-19.61-1.61"},{"penalty":50,"trial_type":"html-keyboard-response","trial_index":147,"time_elapsed":632308,"internal_node_id":"0.0-19.61-1.61"},{"fined":true,"trial_type":"html-keyboard-response","trial_index":147,"time_elapsed":632308,"internal_node_id":"0.0-19.61-1.61"},{"rt":null,"stimulus":"<div style=\"background-color:#ff7157\"><h1 style=\"background-color:MediumSeaGreen\">You earned 50 coins</h1><h1 h1 style=\"background-color:Tomato\">but you have recieved a fine of 50 coins</h1><h1 style=\"background-color:Tomato\">Remember, you need to keep going until you have 3000 coins!</h1><img id=\"box\" src=\"img/prizes/50.png\"></img><img id=\"box\" src=\"img/sad/purpleopenboxsadthumb.png\"></img></div>","key_press":null,"trial_type":"html-keyboard-response","trial_index":147,"time_elapsed":635325,"internal_node_id":"0.0-19.61-1.61"},{"rt":284,"stimulus":"<p>Choose a box,</p>","button_pressed":2,"trial_type":"html-button-response","trial_index":148,"time_elapsed":635610,"internal_node_id":"0.0-19.62-0.62"},{"reward":50,"trial_type":"html-keyboard-response","trial_index":149,"time_elapsed":635610,"internal_node_id":"0.0-19.62-1.62"},{"penalty":50,"trial_type":"html-keyboard-response","trial_index":149,"time_elapsed":635610,"internal_node_id":"0.0-19.62-1.62"},{"fined":false,"trial_type":"html-keyboard-response","trial_index":149,"time_elapsed":635610,"internal_node_id":"0.0-19.62-1.62"},{"rt":null,"stimulus":"<div style=\"background-color:#6dce98\"><h1 style=\"background-color:MediumSeaGreen\" >You earned 50 coins! Well done!</h1><div style=\"background-color:#6dce98\"><h1 style=\"background-color:MediumSeaGreen\" >Only 800 left to go!</h1><img id=\"box\" src=\"img/prizes/coins.png\"></img><img id=\"box\" src=\"img/empty/purpleopenbox.png\"></img></div>","key_press":null,"trial_type":"html-keyboard-response","trial_index":149,"time_elapsed":638625,"internal_node_id":"0.0-19.62-1.62"},{"rt":167,"stimulus":"<p>Choose a box,</p>","button_pressed":2,"trial_type":"html-button-response","trial_index":150,"time_elapsed":638793,"internal_node_id":"0.0-19.63-0.63"},{"reward":50,"trial_type":"html-keyboard-response","trial_index":151,"time_elapsed":638794,"internal_node_id":"0.0-19.63-1.63"},{"penalty":50,"trial_type":"html-keyboard-response","trial_index":151,"time_elapsed":638794,"internal_node_id":"0.0-19.63-1.63"},{"fined":false,"trial_type":"html-keyboard-response","trial_index":151,"time_elapsed":638794,"internal_node_id":"0.0-19.63-1.63"},{"rt":null,"stimulus":"<div style=\"background-color:#6dce98\"><h1 style=\"background-color:MediumSeaGreen\" >You earned 50 coins! Well done!</h1><div style=\"background-color:#6dce98\"><h1 style=\"background-color:MediumSeaGreen\" >Only 750 left to go!</h1><img id=\"box\" src=\"img/prizes/coins.png\"></img><img id=\"box\" src=\"img/empty/purpleopenbox.png\"></img></div>","key_press":null,"trial_type":"html-keyboard-response","trial_index":151,"time_elapsed":641805,"internal_node_id":"0.0-19.63-1.63"},{"rt":418,"stimulus":"<p>Choose a box,</p>","button_pressed":2,"trial_type":"html-button-response","trial_index":152,"time_elapsed":642226,"internal_node_id":"0.0-19.64-0.64"},{"reward":50,"trial_type":"html-keyboard-response","trial_index":153,"time_elapsed":642226,"internal_node_id":"0.0-19.64-1.64"},{"penalty":50,"trial_type":"html-keyboard-response","trial_index":153,"time_elapsed":642226,"internal_node_id":"0.0-19.64-1.64"},{"fined":true,"trial_type":"html-keyboard-response","trial_index":153,"time_elapsed":642226,"internal_node_id":"0.0-19.64-1.64"},{"rt":null,"stimulus":"<div style=\"background-color:#ff7157\"><h1 style=\"background-color:MediumSeaGreen\">You earned 50 coins</h1><h1 h1 style=\"background-color:Tomato\">but you have recieved a fine of 50 coins</h1><h1 style=\"background-color:Tomato\">Remember, you need to keep going until you have 3000 coins!</h1><img id=\"box\" src=\"img/prizes/50.png\"></img><img id=\"box\" src=\"img/sad/purpleopenboxsadthumb.png\"></img></div>","key_press":null,"trial_type":"html-keyboard-response","trial_index":153,"time_elapsed":645230,"internal_node_id":"0.0-19.64-1.64"},{"rt":244,"stimulus":"<p>Choose a box,</p>","button_pressed":2,"trial_type":"html-button-response","trial_index":154,"time_elapsed":645475,"internal_node_id":"0.0-19.65-0.65"},{"reward":50,"trial_type":"html-keyboard-response","trial_index":155,"time_elapsed":645475,"internal_node_id":"0.0-19.65-1.65"},{"penalty":50,"trial_type":"html-keyboard-response","trial_index":155,"time_elapsed":645475,"internal_node_id":"0.0-19.65-1.65"},{"fined":false,"trial_type":"html-keyboard-response","trial_index":155,"time_elapsed":645475,"internal_node_id":"0.0-19.65-1.65"},{"rt":null,"stimulus":"<div style=\"background-color:#6dce98\"><h1 style=\"background-color:MediumSeaGreen\" >You earned 50 coins! Well done!</h1><div style=\"background-color:#6dce98\"><h1 style=\"background-color:MediumSeaGreen\" >Only 700 left to go!</h1><img id=\"box\" src=\"img/prizes/coins.png\"></img><img id=\"box\" src=\"img/empty/purpleopenbox.png\"></img></div>","key_press":null,"trial_type":"html-keyboard-response","trial_index":155,"time_elapsed":648490,"internal_node_id":"0.0-19.65-1.65"},{"rt":156,"stimulus":"<p>Choose a box,</p>","button_pressed":2,"trial_type":"html-button-response","trial_index":156,"time_elapsed":648647,"internal_node_id":"0.0-19.66-0.66"},{"reward":50,"trial_type":"html-keyboard-response","trial_index":157,"time_elapsed":648648,"internal_node_id":"0.0-19.66-1.66"},{"penalty":50,"trial_type":"html-keyboard-response","trial_index":157,"time_elapsed":648648,"internal_node_id":"0.0-19.66-1.66"},{"fined":true,"trial_type":"html-keyboard-response","trial_index":157,"time_elapsed":648648,"internal_node_id":"0.0-19.66-1.66"},{"rt":null,"stimulus":"<div style=\"background-color:#ff7157\"><h1 style=\"background-color:MediumSeaGreen\">You earned 50 coins</h1><h1 h1 style=\"background-color:Tomato\">but you have recieved a fine of 50 coins</h1><h1 style=\"background-color:Tomato\">Remember, you need to keep going until you have 3000 coins!</h1><img id=\"box\" src=\"img/prizes/50.png\"></img><img id=\"box\" src=\"img/sad/purpleopenboxsadthumb.png\"></img></div>","key_press":null,"trial_type":"html-keyboard-response","trial_index":157,"time_elapsed":651652,"internal_node_id":"0.0-19.66-1.66"},{"rt":496,"stimulus":"<p>Choose a box,</p>","button_pressed":2,"trial_type":"html-button-response","trial_index":158,"time_elapsed":652151,"internal_node_id":"0.0-19.67-0.67"},{"reward":50,"trial_type":"html-keyboard-response","trial_index":159,"time_elapsed":652151,"internal_node_id":"0.0-19.67-1.67"},{"penalty":50,"trial_type":"html-keyboard-response","trial_index":159,"time_elapsed":652151,"internal_node_id":"0.0-19.67-1.67"},{"fined":true,"trial_type":"html-keyboard-response","trial_index":159,"time_elapsed":652151,"internal_node_id":"0.0-19.67-1.67"},{"rt":null,"stimulus":"<div style=\"background-color:#ff7157\"><h1 style=\"background-color:MediumSeaGreen\">You earned 50 coins</h1><h1 h1 style=\"background-color:Tomato\">but you have recieved a fine of 50 coins</h1><h1 style=\"background-color:Tomato\">Remember, you need to keep going until you have 3000 coins!</h1><img id=\"box\" src=\"img/prizes/50.png\"></img><img id=\"box\" src=\"img/sad/purpleopenboxsadthumb.png\"></img></div>","key_press":null,"trial_type":"html-keyboard-response","trial_index":159,"time_elapsed":655159,"internal_node_id":"0.0-19.67-1.67"},{"rt":384,"stimulus":"<p>Choose a box,</p>","button_pressed":2,"trial_type":"html-button-response","trial_index":160,"time_elapsed":655545,"internal_node_id":"0.0-19.68-0.68"},{"reward":50,"trial_type":"html-keyboard-response","trial_index":161,"time_elapsed":655545,"internal_node_id":"0.0-19.68-1.68"},{"penalty":50,"trial_type":"html-keyboard-response","trial_index":161,"time_elapsed":655545,"internal_node_id":"0.0-19.68-1.68"},{"fined":false,"trial_type":"html-keyboard-response","trial_index":161,"time_elapsed":655545,"internal_node_id":"0.0-19.68-1.68"},{"rt":null,"stimulus":"<div style=\"background-color:#6dce98\"><h1 style=\"background-color:MediumSeaGreen\" >You earned 50 coins! Well done!</h1><div style=\"background-color:#6dce98\"><h1 style=\"background-color:MediumSeaGreen\" >Only 650 left to go!</h1><img id=\"box\" src=\"img/prizes/coins.png\"></img><img id=\"box\" src=\"img/empty/purpleopenbox.png\"></img></div>","key_press":null,"trial_type":"html-keyboard-response","trial_index":161,"time_elapsed":658552,"internal_node_id":"0.0-19.68-1.68"},{"rt":378,"stimulus":"<p>Choose a box,</p>","button_pressed":2,"trial_type":"html-button-response","trial_index":162,"time_elapsed":658935,"internal_node_id":"0.0-19.69-0.69"},{"reward":50,"trial_type":"html-keyboard-response","trial_index":163,"time_elapsed":658935,"internal_node_id":"0.0-19.69-1.69"},{"penalty":50,"trial_type":"html-keyboard-response","trial_index":163,"time_elapsed":658935,"internal_node_id":"0.0-19.69-1.69"},{"fined":false,"trial_type":"html-keyboard-response","trial_index":163,"time_elapsed":658935,"internal_node_id":"0.0-19.69-1.69"},{"rt":null,"stimulus":"<div style=\"background-color:#6dce98\"><h1 style=\"background-color:MediumSeaGreen\" >You earned 50 coins! Well done!</h1><div style=\"background-color:#6dce98\"><h1 style=\"background-color:MediumSeaGreen\" >Only 600 left to go!</h1><img id=\"box\" src=\"img/prizes/coins.png\"></img><img id=\"box\" src=\"img/empty/purpleopenbox.png\"></img></div>","key_press":null,"trial_type":"html-keyboard-response","trial_index":163,"time_elapsed":661947,"internal_node_id":"0.0-19.69-1.69"},{"rt":374,"stimulus":"<p>Choose a box,</p>","button_pressed":2,"trial_type":"html-button-response","trial_index":164,"time_elapsed":662320,"internal_node_id":"0.0-19.70-0.70"},{"reward":50,"trial_type":"html-keyboard-response","trial_index":165,"time_elapsed":662320,"internal_node_id":"0.0-19.70-1.70"},{"penalty":50,"trial_type":"html-keyboard-response","trial_index":165,"time_elapsed":662320,"internal_node_id":"0.0-19.70-1.70"},{"fined":true,"trial_type":"html-keyboard-response","trial_index":165,"time_elapsed":662320,"internal_node_id":"0.0-19.70-1.70"},{"rt":null,"stimulus":"<div style=\"background-color:#ff7157\"><h1 style=\"background-color:MediumSeaGreen\">You earned 50 coins</h1><h1 h1 style=\"background-color:Tomato\">but you have recieved a fine of 50 coins</h1><h1 style=\"background-color:Tomato\">Remember, you need to keep going until you have 3000 coins!</h1><img id=\"box\" src=\"img/prizes/50.png\"></img><img id=\"box\" src=\"img/sad/purpleopenboxsadthumb.png\"></img></div>","key_press":null,"trial_type":"html-keyboard-response","trial_index":165,"time_elapsed":665323,"internal_node_id":"0.0-19.70-1.70"},{"rt":442,"stimulus":"<p>Choose a box,</p>","button_pressed":2,"trial_type":"html-button-response","trial_index":166,"time_elapsed":665766,"internal_node_id":"0.0-19.71-0.71"},{"reward":50,"trial_type":"html-keyboard-response","trial_index":167,"time_elapsed":665766,"internal_node_id":"0.0-19.71-1.71"},{"penalty":50,"trial_type":"html-keyboard-response","trial_index":167,"time_elapsed":665766,"internal_node_id":"0.0-19.71-1.71"},{"fined":true,"trial_type":"html-keyboard-response","trial_index":167,"time_elapsed":665766,"internal_node_id":"0.0-19.71-1.71"},{"rt":null,"stimulus":"<div style=\"background-color:#ff7157\"><h1 style=\"background-color:MediumSeaGreen\">You earned 50 coins</h1><h1 h1 style=\"background-color:Tomato\">but you have recieved a fine of 50 coins</h1><h1 style=\"background-color:Tomato\">Remember, you need to keep going until you have 3000 coins!</h1><img id=\"box\" src=\"img/prizes/50.png\"></img><img id=\"box\" src=\"img/sad/purpleopenboxsadthumb.png\"></img></div>","key_press":null,"trial_type":"html-keyboard-response","trial_index":167,"time_elapsed":668775,"internal_node_id":"0.0-19.71-1.71"},{"rt":238,"stimulus":"<p>Choose a box,</p>","button_pressed":2,"trial_type":"html-button-response","trial_index":168,"time_elapsed":669015,"internal_node_id":"0.0-19.72-0.72"},{"reward":50,"trial_type":"html-keyboard-response","trial_index":169,"time_elapsed":669016,"internal_node_id":"0.0-19.72-1.72"},{"penalty":50,"trial_type":"html-keyboard-response","trial_index":169,"time_elapsed":669016,"internal_node_id":"0.0-19.72-1.72"},{"fined":true,"trial_type":"html-keyboard-response","trial_index":169,"time_elapsed":669016,"internal_node_id":"0.0-19.72-1.72"},{"rt":null,"stimulus":"<div style=\"background-color:#ff7157\"><h1 style=\"background-color:MediumSeaGreen\">You earned 50 coins</h1><h1 h1 style=\"background-color:Tomato\">but you have recieved a fine of 50 coins</h1><h1 style=\"background-color:Tomato\">Remember, you need to keep going until you have 3000 coins!</h1><img id=\"box\" src=\"img/prizes/50.png\"></img><img id=\"box\" src=\"img/sad/purpleopenboxsadthumb.png\"></img></div>","key_press":null,"trial_type":"html-keyboard-response","trial_index":169,"time_elapsed":672033,"internal_node_id":"0.0-19.72-1.72"},{"rt":301,"stimulus":"<p>Choose a box,</p>","button_pressed":2,"trial_type":"html-button-response","trial_index":170,"time_elapsed":672334,"internal_node_id":"0.0-19.73-0.73"},{"reward":50,"trial_type":"html-keyboard-response","trial_index":171,"time_elapsed":672334,"internal_node_id":"0.0-19.73-1.73"},{"penalty":50,"trial_type":"html-keyboard-response","trial_index":171,"time_elapsed":672334,"internal_node_id":"0.0-19.73-1.73"},{"fined":false,"trial_type":"html-keyboard-response","trial_index":171,"time_elapsed":672334,"internal_node_id":"0.0-19.73-1.73"},{"rt":null,"stimulus":"<div style=\"background-color:#6dce98\"><h1 style=\"background-color:MediumSeaGreen\" >You earned 50 coins! Well done!</h1><div style=\"background-color:#6dce98\"><h1 style=\"background-color:MediumSeaGreen\" >Only 550 left to go!</h1><img id=\"box\" src=\"img/prizes/coins.png\"></img><img id=\"box\" src=\"img/empty/purpleopenbox.png\"></img></div>","key_press":null,"trial_type":"html-keyboard-response","trial_index":171,"time_elapsed":675340,"internal_node_id":"0.0-19.73-1.73"},{"rt":537,"stimulus":"<p>Choose a box,</p>","button_pressed":2,"trial_type":"html-button-response","trial_index":172,"time_elapsed":675878,"internal_node_id":"0.0-19.74-0.74"},{"reward":50,"trial_type":"html-keyboard-response","trial_index":173,"time_elapsed":675878,"internal_node_id":"0.0-19.74-1.74"},{"penalty":50,"trial_type":"html-keyboard-response","trial_index":173,"time_elapsed":675878,"internal_node_id":"0.0-19.74-1.74"},{"fined":true,"trial_type":"html-keyboard-response","trial_index":173,"time_elapsed":675878,"internal_node_id":"0.0-19.74-1.74"},{"rt":null,"stimulus":"<div style=\"background-color:#ff7157\"><h1 style=\"background-color:MediumSeaGreen\">You earned 50 coins</h1><h1 h1 style=\"background-color:Tomato\">but you have recieved a fine of 50 coins</h1><h1 style=\"background-color:Tomato\">Remember, you need to keep going until you have 3000 coins!</h1><img id=\"box\" src=\"img/prizes/50.png\"></img><img id=\"box\" src=\"img/sad/purpleopenboxsadthumb.png\"></img></div>","key_press":null,"trial_type":"html-keyboard-response","trial_index":173,"time_elapsed":678883,"internal_node_id":"0.0-19.74-1.74"},{"rt":302,"stimulus":"<p>Choose a box,</p>","button_pressed":2,"trial_type":"html-button-response","trial_index":174,"time_elapsed":679186,"internal_node_id":"0.0-19.75-0.75"},{"reward":50,"trial_type":"html-keyboard-response","trial_index":175,"time_elapsed":679186,"internal_node_id":"0.0-19.75-1.75"},{"penalty":50,"trial_type":"html-keyboard-response","trial_index":175,"time_elapsed":679186,"internal_node_id":"0.0-19.75-1.75"},{"fined":false,"trial_type":"html-keyboard-response","trial_index":175,"time_elapsed":679186,"internal_node_id":"0.0-19.75-1.75"},{"rt":null,"stimulus":"<div style=\"background-color:#6dce98\"><h1 style=\"background-color:MediumSeaGreen\" >You earned 50 coins! Well done!</h1><div style=\"background-color:#6dce98\"><h1 style=\"background-color:MediumSeaGreen\" >Only 500 left to go!</h1><img id=\"box\" src=\"img/prizes/coins.png\"></img><img id=\"box\" src=\"img/empty/purpleopenbox.png\"></img></div>","key_press":null,"trial_type":"html-keyboard-response","trial_index":175,"time_elapsed":682201,"internal_node_id":"0.0-19.75-1.75"},{"rt":443,"stimulus":"<p>Choose a box,</p>","button_pressed":2,"trial_type":"html-button-response","trial_index":176,"time_elapsed":682644,"internal_node_id":"0.0-19.76-0.76"},{"reward":50,"trial_type":"html-keyboard-response","trial_index":177,"time_elapsed":682644,"internal_node_id":"0.0-19.76-1.76"},{"penalty":50,"trial_type":"html-keyboard-response","trial_index":177,"time_elapsed":682644,"internal_node_id":"0.0-19.76-1.76"},{"fined":true,"trial_type":"html-keyboard-response","trial_index":177,"time_elapsed":682644,"internal_node_id":"0.0-19.76-1.76"},{"rt":null,"stimulus":"<div style=\"background-color:#ff7157\"><h1 style=\"background-color:MediumSeaGreen\">You earned 50 coins</h1><h1 h1 style=\"background-color:Tomato\">but you have recieved a fine of 50 coins</h1><h1 style=\"background-color:Tomato\">Remember, you need to keep going until you have 3000 coins!</h1><img id=\"box\" src=\"img/prizes/50.png\"></img><img id=\"box\" src=\"img/sad/purpleopenboxsadthumb.png\"></img></div>","key_press":null,"trial_type":"html-keyboard-response","trial_index":177,"time_elapsed":685661,"internal_node_id":"0.0-19.76-1.76"},{"rt":458,"stimulus":"<p>Choose a box,</p>","button_pressed":2,"trial_type":"html-button-response","trial_index":178,"time_elapsed":686122,"internal_node_id":"0.0-19.77-0.77"},{"reward":50,"trial_type":"html-keyboard-response","trial_index":179,"time_elapsed":686122,"internal_node_id":"0.0-19.77-1.77"},{"penalty":50,"trial_type":"html-keyboard-response","trial_index":179,"time_elapsed":686122,"internal_node_id":"0.0-19.77-1.77"},{"fined":false,"trial_type":"html-keyboard-response","trial_index":179,"time_elapsed":686122,"internal_node_id":"0.0-19.77-1.77"},{"rt":null,"stimulus":"<div style=\"background-color:#6dce98\"><h1 style=\"background-color:MediumSeaGreen\" >You earned 50 coins! Well done!</h1><div style=\"background-color:#6dce98\"><h1 style=\"background-color:MediumSeaGreen\" >Only 450 left to go!</h1><img id=\"box\" src=\"img/prizes/coins.png\"></img><img id=\"box\" src=\"img/empty/purpleopenbox.png\"></img></div>","key_press":null,"trial_type":"html-keyboard-response","trial_index":179,"time_elapsed":689131,"internal_node_id":"0.0-19.77-1.77"},{"rt":198,"stimulus":"<p>Choose a box,</p>","button_pressed":2,"trial_type":"html-button-response","trial_index":180,"time_elapsed":689331,"internal_node_id":"0.0-19.78-0.78"},{"reward":50,"trial_type":"html-keyboard-response","trial_index":181,"time_elapsed":689331,"internal_node_id":"0.0-19.78-1.78"},{"penalty":50,"trial_type":"html-keyboard-response","trial_index":181,"time_elapsed":689331,"internal_node_id":"0.0-19.78-1.78"},{"fined":true,"trial_type":"html-keyboard-response","trial_index":181,"time_elapsed":689331,"internal_node_id":"0.0-19.78-1.78"},{"rt":null,"stimulus":"<div style=\"background-color:#ff7157\"><h1 style=\"background-color:MediumSeaGreen\">You earned 50 coins</h1><h1 h1 style=\"background-color:Tomato\">but you have recieved a fine of 50 coins</h1><h1 style=\"background-color:Tomato\">Remember, you need to keep going until you have 3000 coins!</h1><img id=\"box\" src=\"img/prizes/50.png\"></img><img id=\"box\" src=\"img/sad/purpleopenboxsadthumb.png\"></img></div>","key_press":null,"trial_type":"html-keyboard-response","trial_index":181,"time_elapsed":692335,"internal_node_id":"0.0-19.78-1.78"},{"rt":324,"stimulus":"<p>Choose a box,</p>","button_pressed":2,"trial_type":"html-button-response","trial_index":182,"time_elapsed":692661,"internal_node_id":"0.0-19.79-0.79"},{"reward":50,"trial_type":"html-keyboard-response","trial_index":183,"time_elapsed":692661,"internal_node_id":"0.0-19.79-1.79"},{"penalty":50,"trial_type":"html-keyboard-response","trial_index":183,"time_elapsed":692661,"internal_node_id":"0.0-19.79-1.79"},{"fined":false,"trial_type":"html-keyboard-response","trial_index":183,"time_elapsed":692661,"internal_node_id":"0.0-19.79-1.79"},{"rt":null,"stimulus":"<div style=\"background-color:#6dce98\"><h1 style=\"background-color:MediumSeaGreen\" >You earned 50 coins! Well done!</h1><div style=\"background-color:#6dce98\"><h1 style=\"background-color:MediumSeaGreen\" >Only 400 left to go!</h1><img id=\"box\" src=\"img/prizes/coins.png\"></img><img id=\"box\" src=\"img/empty/purpleopenbox.png\"></img></div>","key_press":null,"trial_type":"html-keyboard-response","trial_index":183,"time_elapsed":695675,"internal_node_id":"0.0-19.79-1.79"},{"rt":434,"stimulus":"<p>Choose a box,</p>","button_pressed":2,"trial_type":"html-button-response","trial_index":184,"time_elapsed":696110,"internal_node_id":"0.0-19.80-0.80"},{"reward":50,"trial_type":"html-keyboard-response","trial_index":185,"time_elapsed":696110,"internal_node_id":"0.0-19.80-1.80"},{"penalty":50,"trial_type":"html-keyboard-response","trial_index":185,"time_elapsed":696110,"internal_node_id":"0.0-19.80-1.80"},{"fined":false,"trial_type":"html-keyboard-response","trial_index":185,"time_elapsed":696110,"internal_node_id":"0.0-19.80-1.80"},{"rt":null,"stimulus":"<div style=\"background-color:#6dce98\"><h1 style=\"background-color:MediumSeaGreen\" >You earned 50 coins! Well done!</h1><div style=\"background-color:#6dce98\"><h1 style=\"background-color:MediumSeaGreen\" >Only 350 left to go!</h1><img id=\"box\" src=\"img/prizes/coins.png\"></img><img id=\"box\" src=\"img/empty/purpleopenbox.png\"></img></div>","key_press":null,"trial_type":"html-keyboard-response","trial_index":185,"time_elapsed":699117,"internal_node_id":"0.0-19.80-1.80"},{"rt":519,"stimulus":"<p>Choose a box,</p>","button_pressed":2,"trial_type":"html-button-response","trial_index":186,"time_elapsed":699637,"internal_node_id":"0.0-19.81-0.81"},{"reward":50,"trial_type":"html-keyboard-response","trial_index":187,"time_elapsed":699637,"internal_node_id":"0.0-19.81-1.81"},{"penalty":50,"trial_type":"html-keyboard-response","trial_index":187,"time_elapsed":699637,"internal_node_id":"0.0-19.81-1.81"},{"fined":false,"trial_type":"html-keyboard-response","trial_index":187,"time_elapsed":699637,"internal_node_id":"0.0-19.81-1.81"},{"rt":null,"stimulus":"<div style=\"background-color:#6dce98\"><h1 style=\"background-color:MediumSeaGreen\" >You earned 50 coins! Well done!</h1><div style=\"background-color:#6dce98\"><h1 style=\"background-color:MediumSeaGreen\" >Only 300 left to go!</h1><img id=\"box\" src=\"img/prizes/coins.png\"></img><img id=\"box\" src=\"img/empty/purpleopenbox.png\"></img></div>","key_press":null,"trial_type":"html-keyboard-response","trial_index":187,"time_elapsed":702653,"internal_node_id":"0.0-19.81-1.81"},{"rt":356,"stimulus":"<p>Choose a box,</p>","button_pressed":2,"trial_type":"html-button-response","trial_index":188,"time_elapsed":703010,"internal_node_id":"0.0-19.82-0.82"},{"reward":50,"trial_type":"html-keyboard-response","trial_index":189,"time_elapsed":703010,"internal_node_id":"0.0-19.82-1.82"},{"penalty":50,"trial_type":"html-keyboard-response","trial_index":189,"time_elapsed":703010,"internal_node_id":"0.0-19.82-1.82"},{"fined":false,"trial_type":"html-keyboard-response","trial_index":189,"time_elapsed":703010,"internal_node_id":"0.0-19.82-1.82"},{"rt":null,"stimulus":"<div style=\"background-color:#6dce98\"><h1 style=\"background-color:MediumSeaGreen\" >You earned 50 coins! Well done!</h1><div style=\"background-color:#6dce98\"><h1 style=\"background-color:MediumSeaGreen\" >Only 250 left to go!</h1><img id=\"box\" src=\"img/prizes/coins.png\"></img><img id=\"box\" src=\"img/empty/purpleopenbox.png\"></img></div>","key_press":null,"trial_type":"html-keyboard-response","trial_index":189,"time_elapsed":706018,"internal_node_id":"0.0-19.82-1.82"},{"rt":377,"stimulus":"<p>Choose a box,</p>","button_pressed":2,"trial_type":"html-button-response","trial_index":190,"time_elapsed":706397,"internal_node_id":"0.0-19.83-0.83"},{"reward":50,"trial_type":"html-keyboard-response","trial_index":191,"time_elapsed":706397,"internal_node_id":"0.0-19.83-1.83"},{"penalty":50,"trial_type":"html-keyboard-response","trial_index":191,"time_elapsed":706397,"internal_node_id":"0.0-19.83-1.83"},{"fined":true,"trial_type":"html-keyboard-response","trial_index":191,"time_elapsed":706397,"internal_node_id":"0.0-19.83-1.83"},{"rt":null,"stimulus":"<div style=\"background-color:#ff7157\"><h1 style=\"background-color:MediumSeaGreen\">You earned 50 coins</h1><h1 h1 style=\"background-color:Tomato\">but you have recieved a fine of 50 coins</h1><h1 style=\"background-color:Tomato\">Remember, you need to keep going until you have 3000 coins!</h1><img id=\"box\" src=\"img/prizes/50.png\"></img><img id=\"box\" src=\"img/sad/purpleopenboxsadthumb.png\"></img></div>","key_press":null,"trial_type":"html-keyboard-response","trial_index":191,"time_elapsed":709412,"internal_node_id":"0.0-19.83-1.83"},{"rt":402,"stimulus":"<p>Choose a box,</p>","button_pressed":2,"trial_type":"html-button-response","trial_index":192,"time_elapsed":709816,"internal_node_id":"0.0-19.84-0.84"},{"reward":50,"trial_type":"html-keyboard-response","trial_index":193,"time_elapsed":709816,"internal_node_id":"0.0-19.84-1.84"},{"penalty":50,"trial_type":"html-keyboard-response","trial_index":193,"time_elapsed":709816,"internal_node_id":"0.0-19.84-1.84"},{"fined":false,"trial_type":"html-keyboard-response","trial_index":193,"time_elapsed":709816,"internal_node_id":"0.0-19.84-1.84"},{"rt":null,"stimulus":"<div style=\"background-color:#6dce98\"><h1 style=\"background-color:MediumSeaGreen\" >You earned 50 coins! Well done!</h1><div style=\"background-color:#6dce98\"><h1 style=\"background-color:MediumSeaGreen\" >Only 200 left to go!</h1><img id=\"box\" src=\"img/prizes/coins.png\"></img><img id=\"box\" src=\"img/empty/purpleopenbox.png\"></img></div>","key_press":null,"trial_type":"html-keyboard-response","trial_index":193,"time_elapsed":712821,"internal_node_id":"0.0-19.84-1.84"},{"rt":399,"stimulus":"<p>Choose a box,</p>","button_pressed":2,"trial_type":"html-button-response","trial_index":194,"time_elapsed":713224,"internal_node_id":"0.0-19.85-0.85"},{"reward":50,"trial_type":"html-keyboard-response","trial_index":195,"time_elapsed":713224,"internal_node_id":"0.0-19.85-1.85"},{"penalty":50,"trial_type":"html-keyboard-response","trial_index":195,"time_elapsed":713224,"internal_node_id":"0.0-19.85-1.85"},{"fined":false,"trial_type":"html-keyboard-response","trial_index":195,"time_elapsed":713224,"internal_node_id":"0.0-19.85-1.85"},{"rt"