[{"view_history":"[{\"page_index\":0,\"viewing_time\":40226.76999995019},{\"page_index\":1,\"viewing_time\":9896.695000003092},{\"page_index\":2,\"viewing_time\":31042.455000104383},{\"page_index\":3,\"viewing_time\":35382.44499999564},{\"page_index\":4,\"viewing_time\":18233.76999993343},{\"page_index\":5,\"viewing_time\":19816.875000018626}]","rt":154602.14500001166,"trial_type":"instructions","trial_index":0,"time_elapsed":154609,"internal_node_id":"0.0-0.0"},{"rt":13045.535000041127,"responses":"{\"Q0\":\"Yes\",\"Q1\":\"Yes\",\"Q2\":\"Yes\"}","question_order":"[0,1,2]","trial_type":"survey-multi-choice","trial_index":1,"time_elapsed":167665,"internal_node_id":"0.0-1.0-0.0"},{"rt":36858.485000091605,"responses":"{\"Q0\":\"Yes\",\"Q1\":\"Yes\",\"Q2\":\"Yes\"}","question_order":"[0,1,2]","trial_type":"survey-multi-choice","trial_index":2,"time_elapsed":204538,"internal_node_id":"0.0-2.0-0.0"},{"rt":4700.264999992214,"responses":"{\"Q0\":\"602ac5449070c1148b6201d4\"}","trial_type":"survey-text","trial_index":3,"time_elapsed":209256,"internal_node_id":"0.0-3.0"},{"rt":7767.69000000786,"responses":"{\"Q0\":\"Female\",\"Q1\":\"18-25\"}","question_order":"[0,1]","trial_type":"survey-multi-choice","trial_index":4,"time_elapsed":217030,"internal_node_id":"0.0-4.0"},{"rt":10544.140000012703,"responses":"{\"Q0\":\"\"}","trial_type":"survey-text","trial_index":5,"time_elapsed":227591,"internal_node_id":"0.0-5.0"},{"view_history":"[{\"page_index\":0,\"viewing_time\":5424.2599999997765}]","rt":5425.285000004806,"trial_type":"instructions","trial_index":6,"time_elapsed":233018,"internal_node_id":"0.0-6.0"},{"rt":69870.95000001136,"responses":"{\"Interested\":3,\"Distressed\":0,\"Excited\":0,\"Upset\":3}","question_order":"[0,1,2,3]","trial_type":"survey-likert","trial_index":7,"time_elapsed":302900,"internal_node_id":"0.0-7.0"},{"rt":41036.64999990724,"responses":"{\"Strong\":1,\"Guilty\":0,\"Scared\":3,\"Hostile\":1}","question_order":"[0,1,2,3]","trial_type":"survey-likert","trial_index":8,"time_elapsed":343948,"internal_node_id":"0.0-8.0"},{"rt":39967.49499998987,"responses":"{\"Enthusiastic\":1,\"Proud\":1,\"Irritable\":3,\"Alert\":2}","question_order":"[0,1,2,3]","trial_type":"survey-likert","trial_index":9,"time_elapsed":383937,"internal_node_id":"0.0-9.0"},{"rt":34783.95499999169,"responses":"{\"Ashamed\":1,\"Inspired\":3,\"Nervous\":2,\"Determined\":3}","question_order":"[0,1,2,3]","trial_type":"survey-likert","trial_index":10,"time_elapsed":418737,"internal_node_id":"0.0-10.0"},{"rt":44291.45000001881,"responses":"{\"Attentive\":3,\"Jittery\":0,\"Active\":1,\"Afraid\":3}","question_order":"[0,1,2,3]","trial_type":"survey-likert","trial_index":11,"time_elapsed":463039,"internal_node_id":"0.0-11.0"},{"rt":67537.92000003159,"responses":"{\"Q0\":0,\"Q1\":1,\"Q2\":1,\"Q3\":2}","question_order":"[0,1,2,3]","trial_type":"survey-likert","trial_index":12,"time_elapsed":530586,"internal_node_id":"0.0-12.0"},{"rt":25745.014999993145,"responses":"{\"Q0\":0,\"Q1\":0,\"Q2\":0,\"Q3\":0}","question_order":"[0,1,2,3]","trial_type":"survey-likert","trial_index":13,"time_elapsed":556344,"internal_node_id":"0.0-13.0"},{"rt":14542.814999935217,"responses":"{\"Q0\":1,\"Q1\":1,\"Q2\":1,\"Q3\":0}","question_order":"[0,1,2,3]","trial_type":"survey-likert","trial_index":14,"time_elapsed":570896,"internal_node_id":"0.0-14.0"},{"rt":23737.109999987297,"responses":"{\"Q0\":0,\"Q1\":2,\"Q2\":0}","question_order":"[0,1,2]","trial_type":"survey-likert","trial_index":15,"time_elapsed":594639,"internal_node_id":"0.0-15.0"},{"view_history":"[{\"page_index\":0,\"viewing_time\":6487.759999930859},{\"page_index\":1,\"viewing_time\":16525.815000059083},{\"page_index\":2,\"viewing_time\":29737.944999942556}]","rt":52752.5499999756,"trial_type":"instructions","trial_index":16,"time_elapsed":647400,"internal_node_id":"0.0-16.0"},{"rt":3374.680000008084,"stimulus":"<p>Choose a box,</p>","button_pressed":2,"trial_type":"html-button-response","trial_index":17,"time_elapsed":650792,"internal_node_id":"0.0-17.0-0.0"},{"reward":50,"trial_type":"html-keyboard-response","trial_index":18,"time_elapsed":650793,"internal_node_id":"0.0-17.0-1.0"},{"penalty":50,"trial_type":"html-keyboard-response","trial_index":18,"time_elapsed":650794,"internal_node_id":"0.0-17.0-1.0"},{"fined":false,"trial_type":"html-keyboard-response","trial_index":18,"time_elapsed":650794,"internal_node_id":"0.0-17.0-1.0"},{"rt":null,"stimulus":"<div style=\"background-color:#6dce98\"><h1 style=\"background-color:MediumSeaGreen\" >You earned 50 coins! Well done!</h1><div style=\"background-color:#6dce98\"><h1 style=\"background-color:MediumSeaGreen\" >Only 1450 left to go!</h1><img id=\"box\" src=\"img/prizes/coins.png\"></img><img id=\"box\" src=\"img/empty/purpleopenbox.png\"></img></div>","key_press":null,"trial_type":"html-keyboard-response","trial_index":18,"time_elapsed":653810,"internal_node_id":"0.0-17.0-1.0"},{"rt":1935.3450000053272,"stimulus":"<p>Choose a box,</p>","button_pressed":0,"trial_type":"html-button-response","trial_index":19,"time_elapsed":655752,"internal_node_id":"0.0-17.0-0.1"},{"reward":100,"trial_type":"html-keyboard-response","trial_index":20,"time_elapsed":655753,"internal_node_id":"0.0-17.0-1.1"},{"penalty":250,"trial_type":"html-keyboard-response","trial_index":20,"time_elapsed":655753,"internal_node_id":"0.0-17.0-1.1"},{"fined":true,"trial_type":"html-keyboard-response","trial_index":20,"time_elapsed":655753,"internal_node_id":"0.0-17.0-1.1"},{"rt":null,"stimulus":"<div style=\"background-color:#ff7157\"><h1 style=\"background-color:MediumSeaGreen\">You earned 100 coins</h1><h1 h1 style=\"background-color:Tomato\">but you have recieved a fine of 250 coins</h1><h1 style=\"background-color:Tomato\">Remember, you need to keep going until you have 3000 coins!</h1><img id=\"box\" src=\"img/prizes/250.png\"></img><img id=\"box\" src=\"img/sad/blueopenboxsadthumb.png\"></img></div>","key_press":null,"trial_type":"html-keyboard-response","trial_index":20,"time_elapsed":658762,"internal_node_id":"0.0-17.0-1.1"},{"rt":2267.4300000071526,"stimulus":"<p>Choose a box,</p>","button_pressed":3,"trial_type":"html-button-response","trial_index":21,"time_elapsed":661035,"internal_node_id":"0.0-17.0-0.2"},{"reward":50,"trial_type":"html-keyboard-response","trial_index":22,"time_elapsed":661036,"internal_node_id":"0.0-17.0-1.2"},{"penalty":250,"trial_type":"html-keyboard-response","trial_index":22,"time_elapsed":661036,"internal_node_id":"0.0-17.0-1.2"},{"fined":false,"trial_type":"html-keyboard-response","trial_index":22,"time_elapsed":661036,"internal_node_id":"0.0-17.0-1.2"},{"rt":null,"stimulus":"<div style=\"background-color:#6dce98\"><h1 style=\"background-color:MediumSeaGreen\" >You earned 50 coins! Well done!</h1><div style=\"background-color:#6dce98\"><h1 style=\"background-color:MediumSeaGreen\" >Only 1550 left to go!</h1><img id=\"box\" src=\"img/prizes/coins.png\"></img><img id=\"box\" src=\"img/empty/redopenbox.png\"></img></div>","key_press":null,"trial_type":"html-keyboard-response","trial_index":22,"time_elapsed":664049,"internal_node_id":"0.0-17.0-1.2"},{"view_history":"[{\"page_index\":0,\"viewing_time\":11864.2749999417}]","rt":11865.459999884479,"trial_type":"instructions","trial_index":23,"time_elapsed":675917,"internal_node_id":"0.0-18.0"},{"rt":1578.334999969229,"stimulus":"<p>Choose a box,</p>","button_pressed":2,"trial_type":"html-button-response","trial_index":24,"time_elapsed":677502,"internal_node_id":"0.0-19.0-0.0"},{"reward":50,"trial_type":"html-keyboard-response","trial_index":25,"time_elapsed":677503,"internal_node_id":"0.0-19.0-1.0"},{"penalty":50,"trial_type":"html-keyboard-response","trial_index":25,"time_elapsed":677503,"internal_node_id":"0.0-19.0-1.0"},{"fined":true,"trial_type":"html-keyboard-response","trial_index":25,"time_elapsed":677503,"internal_node_id":"0.0-19.0-1.0"},{"rt":null,"stimulus":"<div style=\"background-color:#ff7157\"><h1 style=\"background-color:MediumSeaGreen\">You earned 50 coins</h1><h1 h1 style=\"background-color:Tomato\">but you have recieved a fine of 50 coins</h1><h1 style=\"background-color:Tomato\">Remember, you need to keep going until you have 3000 coins!</h1><img id=\"box\" src=\"img/prizes/50.png\"></img><img id=\"box\" src=\"img/sad/purpleopenboxsadthumb.png\"></img></div>","key_press":null,"trial_type":"html-keyboard-response","trial_index":25,"time_elapsed":680522,"internal_node_id":"0.0-19.0-1.0"},{"rt":1904.2650000192225,"stimulus":"<p>Choose a box,</p>","button_pressed":0,"trial_type":"html-button-response","trial_index":26,"time_elapsed":682432,"internal_node_id":"0.0-19.1-0.1"},{"reward":100,"trial_type":"html-keyboard-response","trial_index":27,"time_elapsed":682433,"internal_node_id":"0.0-19.1-1.1"},{"penalty":250,"trial_type":"html-keyboard-response","trial_index":27,"time_elapsed":682433,"internal_node_id":"0.0-19.1-1.1"},{"fined":true,"trial_type":"html-keyboard-response","trial_index":27,"time_elapsed":682433,"internal_node_id":"0.0-19.1-1.1"},{"rt":null,"stimulus":"<div style=\"background-color:#ff7157\"><h1 style=\"background-color:MediumSeaGreen\">You earned 100 coins</h1><h1 h1 style=\"background-color:Tomato\">but you have recieved a fine of 250 coins</h1><h1 style=\"background-color:Tomato\">Remember, you need to keep going until you have 3000 coins!</h1><img id=\"box\" src=\"img/prizes/250.png\"></img><img id=\"box\" src=\"img/sad/blueopenboxsadthumb.png\"></img></div>","key_press":null,"trial_type":"html-keyboard-response","trial_index":27,"time_elapsed":685442,"internal_node_id":"0.0-19.1-1.1"},{"rt":1617.4100000644103,"stimulus":"<p>Choose a box,</p>","button_pressed":1,"trial_type":"html-button-response","trial_index":28,"time_elapsed":687065,"internal_node_id":"0.0-19.2-0.2"},{"reward":100,"trial_type":"html-keyboard-response","trial_index":29,"time_elapsed":687066,"internal_node_id":"0.0-19.2-1.2"},{"penalty":1250,"trial_type":"html-keyboard-response","trial_index":29,"time_elapsed":687066,"internal_node_id":"0.0-19.2-1.2"},{"fined":false,"trial_type":"html-keyboard-response","trial_index":29,"time_elapsed":687066,"internal_node_id":"0.0-19.2-1.2"},{"rt":null,"stimulus":"<div style=\"background-color:#6dce98\"><h1 style=\"background-color:MediumSeaGreen\" >You earned 100 coins! Well done!</h1><div style=\"background-color:#6dce98\"><h1 style=\"background-color:MediumSeaGreen\" >Only 1550 left to go!</h1><img id=\"box\" src=\"img/prizes/coins2.png\"></img><img id=\"box\" src=\"img/empty/greenopenbox.png\"></img></div>","key_press":null,"trial_type":"html-keyboard-response","trial_index":29,"time_elapsed":690081,"internal_node_id":"0.0-19.2-1.2"},{"rt":1457.5999999651685,"stimulus":"<p>Choose a box,</p>","button_pressed":2,"trial_type":"html-button-response","trial_index":30,"time_elapsed":691544,"internal_node_id":"0.0-19.3-0.3"},{"reward":50,"trial_type":"html-keyboard-response","trial_index":31,"time_elapsed":691545,"internal_node_id":"0.0-19.3-1.3"},{"penalty":50,"trial_type":"html-keyboard-response","trial_index":31,"time_elapsed":691545,"internal_node_id":"0.0-19.3-1.3"},{"fined":true,"trial_type":"html-keyboard-response","trial_index":31,"time_elapsed":691545,"internal_node_id":"0.0-19.3-1.3"},{"rt":null,"stimulus":"<div style=\"background-color:#ff7157\"><h1 style=\"background-color:MediumSeaGreen\">You earned 50 coins</h1><h1 h1 style=\"background-color:Tomato\">but you have recieved a fine of 50 coins</h1><h1 style=\"background-color:Tomato\">Remember, you need to keep going until you have 3000 coins!</h1><img id=\"box\" src=\"img/prizes/50.png\"></img><img id=\"box\" src=\"img/sad/purpleopenboxsadthumb.png\"></img></div>","key_press":null,"trial_type":"html-keyboard-response","trial_index":31,"time_elapsed":694562,"internal_node_id":"0.0-19.3-1.3"},{"rt":1084.1500000096858,"stimulus":"<p>Choose a box,</p>","button_pressed":3,"trial_type":"html-button-response","trial_index":32,"time_elapsed":695652,"internal_node_id":"0.0-19.4-0.4"},{"reward":50,"trial_type":"html-keyboard-response","trial_index":33,"time_elapsed":695653,"internal_node_id":"0.0-19.4-1.4"},{"penalty":250,"trial_type":"html-keyboard-response","trial_index":33,"time_elapsed":695653,"internal_node_id":"0.0-19.4-1.4"},{"fined":false,"trial_type":"html-keyboard-response","trial_index":33,"time_elapsed":695653,"internal_node_id":"0.0-19.4-1.4"},{"rt":null,"stimulus":"<div style=\"background-color:#6dce98\"><h1 style=\"background-color:MediumSeaGreen\" >You earned 50 coins! Well done!</h1><div style=\"background-color:#6dce98\"><h1 style=\"background-color:MediumSeaGreen\" >Only 1500 left to go!</h1><img id=\"box\" src=\"img/prizes/coins.png\"></img><img id=\"box\" src=\"img/empty/redopenbox.png\"></img></div>","key_press":null,"trial_type":"html-keyboard-response","trial_index":33,"time_elapsed":698660,"internal_node_id":"0.0-19.4-1.4"},{"rt":974.1800000192598,"stimulus":"<p>Choose a box,</p>","button_pressed":1,"trial_type":"html-button-response","trial_index":34,"time_elapsed":699642,"internal_node_id":"0.0-19.5-0.5"},{"reward":100,"trial_type":"html-keyboard-response","trial_index":35,"time_elapsed":699643,"internal_node_id":"0.0-19.5-1.5"},{"penalty":1250,"trial_type":"html-keyboard-response","trial_index":35,"time_elapsed":699643,"internal_node_id":"0.0-19.5-1.5"},{"fined":false,"trial_type":"html-keyboard-response","trial_index":35,"time_elapsed":699643,"internal_node_id":"0.0-19.5-1.5"},{"rt":null,"stimulus":"<div style=\"background-color:#6dce98\"><h1 style=\"background-color:MediumSeaGreen\" >You earned 100 coins! Well done!</h1><div style=\"background-color:#6dce98\"><h1 style=\"background-color:MediumSeaGreen\" >Only 1400 left to go!</h1><img id=\"box\" src=\"img/prizes/coins2.png\"></img><img id=\"box\" src=\"img/empty/greenopenbox.png\"></img></div>","key_press":null,"trial_type":"html-keyboard-response","trial_index":35,"time_elapsed":702649,"internal_node_id":"0.0-19.5-1.5"},{"rt":782.0100000826642,"stimulus":"<p>Choose a box,</p>","button_pressed":0,"trial_type":"html-button-response","trial_index":36,"time_elapsed":703436,"internal_node_id":"0.0-19.6-0.6"},{"reward":100,"trial_type":"html-keyboard-response","trial_index":37,"time_elapsed":703437,"internal_node_id":"0.0-19.6-1.6"},{"penalty":250,"trial_type":"html-keyboard-response","trial_index":37,"time_elapsed":703437,"internal_node_id":"0.0-19.6-1.6"},{"fined":false,"trial_type":"html-keyboard-response","trial_index":37,"time_elapsed":703437,"internal_node_id":"0.0-19.6-1.6"},{"rt":null,"stimulus":"<div style=\"background-color:#6dce98\"><h1 style=\"background-color:MediumSeaGreen\" >You earned 100 coins! Well done!</h1><div style=\"background-color:#6dce98\"><h1 style=\"background-color:MediumSeaGreen\" >Only 1300 left to go!</h1><img id=\"box\" src=\"img/prizes/coins2.png\"></img><img id=\"box\" src=\"img/empty/blueopenbox.png\"></img></div>","key_press":null,"trial_type":"html-keyboard-response","trial_index":37,"time_elapsed":706444,"internal_node_id":"0.0-19.6-1.6"},{"rt":784.8000000230968,"stimulus":"<p>Choose a box,</p>","button_pressed":2,"trial_type":"html-button-response","trial_index":38,"time_elapsed":707232,"internal_node_id":"0.0-19.7-0.7"},{"reward":50,"trial_type":"html-keyboard-response","trial_index":39,"time_elapsed":707234,"internal_node_id":"0.0-19.7-1.7"},{"penalty":50,"trial_type":"html-keyboard-response","trial_index":39,"time_elapsed":707234,"internal_node_id":"0.0-19.7-1.7"},{"fined":true,"trial_type":"html-keyboard-response","trial_index":39,"time_elapsed":707234,"internal_node_id":"0.0-19.7-1.7"},{"rt":null,"stimulus":"<div style=\"background-color:#ff7157\"><h1 style=\"background-color:MediumSeaGreen\">You earned 50 coins</h1><h1 h1 style=\"background-color:Tomato\">but you have recieved a fine of 50 coins</h1><h1 style=\"background-color:Tomato\">Remember, you need to keep going until you have 3000 coins!</h1><img id=\"box\" src=\"img/prizes/50.png\"></img><img id=\"box\" src=\"img/sad/purpleopenboxsadthumb.png\"></img></div>","key_press":null,"trial_type":"html-keyboard-response","trial_index":39,"time_elapsed":710246,"internal_node_id":"0.0-19.7-1.7"},{"rt":1248.120000003837,"stimulus":"<p>Choose a box,</p>","button_pressed":3,"trial_type":"html-button-response","trial_index":40,"time_elapsed":711500,"internal_node_id":"0.0-19.8-0.8"},{"reward":50,"trial_type":"html-keyboard-response","trial_index":41,"time_elapsed":711501,"internal_node_id":"0.0-19.8-1.8"},{"penalty":250,"trial_type":"html-keyboard-response","trial_index":41,"time_elapsed":711502,"internal_node_id":"0.0-19.8-1.8"},{"fined":false,"trial_type":"html-keyboard-response","trial_index":41,"time_elapsed":711502,"internal_node_id":"0.0-19.8-1.8"},{"rt":null,"stimulus":"<div style=\"background-color:#6dce98\"><h1 style=\"background-color:MediumSeaGreen\" >You earned 50 coins! Well done!</h1><div style=\"background-color:#6dce98\"><h1 style=\"background-color:MediumSeaGreen\" >Only 1250 left to go!</h1><img id=\"box\" src=\"img/prizes/coins.png\"></img><img id=\"box\" src=\"img/empty/redopenbox.png\"></img></div>","key_press":null,"trial_type":"html-keyboard-response","trial_index":41,"time_elapsed":714527,"internal_node_id":"0.0-19.8-1.8"},{"rt":842.8100000601262,"stimulus":"<p>Choose a box,</p>","button_pressed":1,"trial_type":"html-button-response","trial_index":42,"time_elapsed":715375,"internal_node_id":"0.0-19.9-0.9"},{"reward":100,"trial_type":"html-keyboard-response","trial_index":43,"time_elapsed":715378,"internal_node_id":"0.0-19.9-1.9"},{"penalty":1250,"trial_type":"html-keyboard-response","trial_index":43,"time_elapsed":715378,"internal_node_id":"0.0-19.9-1.9"},{"fined":false,"trial_type":"html-keyboard-response","trial_index":43,"time_elapsed":715379,"internal_node_id":"0.0-19.9-1.9"},{"rt":null,"stimulus":"<div style=\"background-color:#6dce98\"><h1 style=\"background-color:MediumSeaGreen\" >You earned 100 coins! Well done!</h1><div style=\"background-color:#6dce98\"><h1 style=\"background-color:MediumSeaGreen\" >Only 1150 left to go!</h1><img id=\"box\" src=\"img/prizes/coins2.png\"></img><img id=\"box\" src=\"img/empty/greenopenbox.png\"></img></div>","key_press":null,"trial_type":"html-keyboard-response","trial_index":43,"time_elapsed":718388,"internal_node_id":"0.0-19.9-1.9"},{"rt":948.355000000447,"stimulus":"<p>Choose a box,</p>","button_pressed":0,"trial_type":"html-button-response","trial_index":44,"time_elapsed":719340,"internal_node_id":"0.0-19.10-0.10"},{"reward":100,"trial_type":"html-keyboard-response","trial_index":45,"time_elapsed":719341,"internal_node_id":"0.0-19.10-1.10"},{"penalty":250,"trial_type":"html-keyboard-response","trial_index":45,"time_elapsed":719341,"internal_node_id":"0.0-19.10-1.10"},{"fined":true,"trial_type":"html-keyboard-response","trial_index":45,"time_elapsed":719341,"internal_node_id":"0.0-19.10-1.10"},{"rt":null,"stimulus":"<div style=\"background-color:#ff7157\"><h1 style=\"background-color:MediumSeaGreen\">You earned 100 coins</h1><h1 h1 style=\"background-color:Tomato\">but you have recieved a fine of 250 coins</h1><h1 style=\"background-color:Tomato\">Remember, you need to keep going until you have 3000 coins!</h1><img id=\"box\" src=\"img/prizes/250.png\"></img><img id=\"box\" src=\"img/sad/blueopenboxsadthumb.png\"></img></div>","key_press":null,"trial_type":"html-keyboard-response","trial_index":45,"time_elapsed":722352,"internal_node_id":"0.0-19.10-1.10"},{"rt":539.7200000006706,"stimulus":"<p>Choose a box,</p>","button_pressed":2,"trial_type":"html-button-response","trial_index":46,"time_elapsed":722899,"internal_node_id":"0.0-19.11-0.11"},{"reward":50,"trial_type":"html-keyboard-response","trial_index":47,"time_elapsed":722900,"internal_node_id":"0.0-19.11-1.11"},{"penalty":50,"trial_type":"html-keyboard-response","trial_index":47,"time_elapsed":722901,"internal_node_id":"0.0-19.11-1.11"},{"fined":true,"trial_type":"html-keyboard-response","trial_index":47,"time_elapsed":722901,"internal_node_id":"0.0-19.11-1.11"},{"rt":null,"stimulus":"<div style=\"background-color:#ff7157\"><h1 style=\"background-color:MediumSeaGreen\">You earned 50 coins</h1><h1 h1 style=\"background-color:Tomato\">but you have recieved a fine of 50 coins</h1><h1 style=\"background-color:Tomato\">Remember, you need to keep going until you have 3000 coins!</h1><img id=\"box\" src=\"img/prizes/50.png\"></img><img id=\"box\" src=\"img/sad/purpleopenboxsadthumb.png\"></img></div>","key_press":null,"trial_type":"html-keyboard-response","trial_index":47,"time_elapsed":725913,"internal_node_id":"0.0-19.11-1.11"},{"rt":487.90499998722225,"stimulus":"<p>Choose a box,</p>","button_pressed":2,"trial_type":"html-button-response","trial_index":48,"time_elapsed":726405,"internal_node_id":"0.0-19.12-0.12"},{"reward":50,"trial_type":"html-keyboard-response","trial_index":49,"time_elapsed":726406,"internal_node_id":"0.0-19.12-1.12"},{"penalty":50,"trial_type":"html-keyboard-response","trial_index":49,"time_elapsed":726406,"internal_node_id":"0.0-19.12-1.12"},{"fined":true,"trial_type":"html-keyboard-response","trial_index":49,"time_elapsed":726406,"internal_node_id":"0.0-19.12-1.12"},{"rt":null,"stimulus":"<div style=\"background-color:#ff7157\"><h1 style=\"background-color:MediumSeaGreen\">You earned 50 coins</h1><h1 h1 style=\"background-color:Tomato\">but you have recieved a fine of 50 coins</h1><h1 style=\"background-color:Tomato\">Remember, you need to keep going until you have 3000 coins!</h1><img id=\"box\" src=\"img/prizes/50.png\"></img><img id=\"box\" src=\"img/sad/purpleopenboxsadthumb.png\"></img></div>","key_press":null,"trial_type":"html-keyboard-response","trial_index":49,"time_elapsed":729410,"internal_node_id":"0.0-19.12-1.12"},{"rt":483.02499996498227,"stimulus":"<p>Choose a box,</p>","button_pressed":3,"trial_type":"html-button-response","trial_index":50,"time_elapsed":729895,"internal_node_id":"0.0-19.13-0.13"},{"reward":50,"trial_type":"html-keyboard-response","trial_index":51,"time_elapsed":729896,"internal_node_id":"0.0-19.13-1.13"},{"penalty":250,"trial_type":"html-keyboard-response","trial_index":51,"time_elapsed":729896,"internal_node_id":"0.0-19.13-1.13"},{"fined":false,"trial_type":"html-keyboard-response","trial_index":51,"time_elapsed":729896,"internal_node_id":"0.0-19.13-1.13"},{"rt":null,"stimulus":"<div style=\"background-color:#6dce98\"><h1 style=\"background-color:MediumSeaGreen\" >You earned 50 coins! Well done!</h1><div style=\"background-color:#6dce98\"><h1 style=\"background-color:MediumSeaGreen\" >Only 1250 left to go!</h1><img id=\"box\" src=\"img/prizes/coins.png\"></img><img id=\"box\" src=\"img/empty/redopenbox.png\"></img></div>","key_press":null,"trial_type":"html-keyboard-response","trial_index":51,"time_elapsed":732909,"internal_node_id":"0.0-19.13-1.13"},{"rt":456.00999996531755,"stimulus":"<p>Choose a box,</p>","button_pressed":3,"trial_type":"html-button-response","trial_index":52,"time_elapsed":733370,"internal_node_id":"0.0-19.14-0.14"},{"reward":50,"trial_type":"html-keyboard-response","trial_index":53,"time_elapsed":733370,"internal_node_id":"0.0-19.14-1.14"},{"penalty":250,"trial_type":"html-keyboard-response","trial_index":53,"time_elapsed":733370,"internal_node_id":"0.0-19.14-1.14"},{"fined":true,"trial_type":"html-keyboard-response","trial_index":53,"time_elapsed":733370,"internal_node_id":"0.0-19.14-1.14"},{"rt":null,"stimulus":"<div style=\"background-color:#ff7157\"><h1 style=\"background-color:MediumSeaGreen\">You earned 50 coins</h1><h1 h1 style=\"background-color:Tomato\">but you have recieved a fine of 250 coins</h1><h1 style=\"background-color:Tomato\">Remember, you need to keep going until you have 3000 coins!</h1><img id=\"box\" src=\"img/prizes/250.png\"></img><img id=\"box\" src=\"img/sad/redopenboxsadthumb.png\"></img></div>","key_press":null,"trial_type":"html-keyboard-response","trial_index":53,"time_elapsed":736378,"internal_node_id":"0.0-19.14-1.14"},{"rt":743.7899999786168,"stimulus":"<p>Choose a box,</p>","button_pressed":1,"trial_type":"html-button-response","trial_index":54,"time_elapsed":737128,"internal_node_id":"0.0-19.15-0.15"},{"reward":100,"trial_type":"html-keyboard-response","trial_index":55,"time_elapsed":737136,"internal_node_id":"0.0-19.15-1.15"},{"penalty":1250,"trial_type":"html-keyboard-response","trial_index":55,"time_elapsed":737136,"internal_node_id":"0.0-19.15-1.15"},{"fined":false,"trial_type":"html-keyboard-response","trial_index":55,"time_elapsed":737136,"internal_node_id":"0.0-19.15-1.15"},{"rt":null,"stimulus":"<div style=\"background-color:#6dce98\"><h1 style=\"background-color:MediumSeaGreen\" >You earned 100 coins! Well done!</h1><div style=\"background-color:#6dce98\"><h1 style=\"background-color:MediumSeaGreen\" >Only 1350 left to go!</h1><img id=\"box\" src=\"img/prizes/coins2.png\"></img><img id=\"box\" src=\"img/empty/greenopenbox.png\"></img></div>","key_press":null,"trial_type":"html-keyboard-response","trial_index":55,"time_elapsed":740144,"internal_node_id":"0.0-19.15-1.15"},{"rt":792.1099999221042,"stimulus":"<p>Choose a box,</p>","button_pressed":0,"trial_type":"html-button-response","trial_index":56,"time_elapsed":740941,"internal_node_id":"0.0-19.16-0.16"},{"reward":100,"trial_type":"html-keyboard-response","trial_index":57,"time_elapsed":740945,"internal_node_id":"0.0-19.16-1.16"},{"penalty":250,"trial_type":"html-keyboard-response","trial_index":57,"time_elapsed":740945,"internal_node_id":"0.0-19.16-1.16"},{"fined":false,"trial_type":"html-keyboard-response","trial_index":57,"time_elapsed":740945,"internal_node_id":"0.0-19.16-1.16"},{"rt":null,"stimulus":"<div style=\"background-color:#6dce98\"><h1 style=\"background-color:MediumSeaGreen\" >You earned 100 coins! Well done!</h1><div style=\"background-color:#6dce98\"><h1 style=\"background-color:MediumSeaGreen\" >Only 1250 left to go!</h1><img id=\"box\" src=\"img/prizes/coins2.png\"></img><img id=\"box\" src=\"img/empty/blueopenbox.png\"></img></div>","key_press":null,"trial_type":"html-keyboard-response","trial_index":57,"time_elapsed":743960,"internal_node_id":"0.0-19.16-1.16"},{"rt":770.9550000727177,"stimulus":"<p>Choose a box,</p>","button_pressed":3,"trial_type":"html-button-response","trial_index":58,"time_elapsed":744736,"internal_node_id":"0.0-19.17-0.17"},{"reward":50,"trial_type":"html-keyboard-response","trial_index":59,"time_elapsed":744737,"internal_node_id":"0.0-19.17-1.17"},{"penalty":250,"trial_type":"html-keyboard-response","trial_index":59,"time_elapsed":744737,"internal_node_id":"0.0-19.17-1.17"},{"fined":true,"trial_type":"html-keyboard-response","trial_index":59,"time_elapsed":744737,"internal_node_id":"0.0-19.17-1.17"},{"rt":null,"stimulus":"<div style=\"background-color:#ff7157\"><h1 style=\"background-color:MediumSeaGreen\">You earned 50 coins</h1><h1 h1 style=\"background-color:Tomato\">but you have recieved a fine of 250 coins</h1><h1 style=\"background-color:Tomato\">Remember, you need to keep going until you have 3000 coins!</h1><img id=\"box\" src=\"img/prizes/250.png\"></img><img id=\"box\" src=\"img/sad/redopenboxsadthumb.png\"></img></div>","key_press":null,"trial_type":"html-keyboard-response","trial_index":59,"time_elapsed":747748,"internal_node_id":"0.0-19.17-1.17"},{"rt":476.23999998904765,"stimulus":"<p>Choose a box,</p>","button_pressed":2,"trial_type":"html-button-response","trial_index":60,"time_elapsed":748229,"internal_node_id":"0.0-19.18-0.18"},{"reward":50,"trial_type":"html-keyboard-response","trial_index":61,"time_elapsed":748230,"internal_node_id":"0.0-19.18-1.18"},{"penalty":50,"trial_type":"html-keyboard-response","trial_index":61,"time_elapsed":748230,"internal_node_id":"0.0-19.18-1.18"},{"fined":false,"trial_type":"html-keyboard-response","trial_index":61,"time_elapsed":748230,"internal_node_id":"0.0-19.18-1.18"},{"rt":null,"stimulus":"<div style=\"background-color:#6dce98\"><h1 style=\"background-color:MediumSeaGreen\" >You earned 50 coins! Well done!</h1><div style=\"background-color:#6dce98\"><h1 style=\"background-color:MediumSeaGreen\" >Only 1400 left to go!</h1><img id=\"box\" src=\"img/prizes/coins.png\"></img><img id=\"box\" src=\"img/empty/purpleopenbox.png\"></img></div>","key_press":null,"trial_type":"html-keyboard-response","trial_index":61,"time_elapsed":751236,"internal_node_id":"0.0-19.18-1.18"},{"rt":447.8249999228865,"stimulus":"<p>Choose a box,</p>","button_pressed":1,"trial_type":"html-button-response","trial_index":62,"time_elapsed":751688,"internal_node_id":"0.0-19.19-0.19"},{"reward":100,"trial_type":"html-keyboard-response","trial_index":63,"time_elapsed":751689,"internal_node_id":"0.0-19.19-1.19"},{"penalty":1250,"trial_type":"html-keyboard-response","trial_index":63,"time_elapsed":751689,"internal_node_id":"0.0-19.19-1.19"},{"fined":false,"trial_type":"html-keyboard-response","trial_index":63,"time_elapsed":751689,"internal_node_id":"0.0-19.19-1.19"},{"rt":null,"stimulus":"<div style=\"background-color:#6dce98\"><h1 style=\"background-color:MediumSeaGreen\" >You earned 100 coins! Well done!</h1><div style=\"background-color:#6dce98\"><h1 style=\"background-color:MediumSeaGreen\" >Only 1300 left to go!</h1><img id=\"box\" src=\"img/prizes/coins2.png\"></img><img id=\"box\" src=\"img/empty/greenopenbox.png\"></img></div>","key_press":null,"trial_type":"html-keyboard-response","trial_index":63,"time_elapsed":754699,"internal_node_id":"0.0-19.19-1.19"},{"rt":661.1000000266358,"stimulus":"<p>Choose a box,</p>","button_pressed":3,"trial_type":"html-button-response","trial_index":64,"time_elapsed":755365,"internal_node_id":"0.0-19.20-0.20"},{"reward":50,"trial_type":"html-keyboard-response","trial_index":65,"time_elapsed":755366,"internal_node_id":"0.0-19.20-1.20"},{"penalty":250,"trial_type":"html-keyboard-response","trial_index":65,"time_elapsed":755366,"internal_node_id":"0.0-19.20-1.20"},{"fined":false,"trial_type":"html-keyboard-response","trial_index":65,"time_elapsed":755366,"internal_node_id":"0.0-19.20-1.20"},{"rt":null,"stimulus":"<div style=\"background-color:#6dce98\"><h1 style=\"background-color:MediumSeaGreen\" >You earned 50 coins! Well done!</h1><div style=\"background-color:#6dce98\"><h1 style=\"background-color:MediumSeaGreen\" >Only 1250 left to go!</h1><img id=\"box\" src=\"img/prizes/coins.png\"></img><img id=\"box\" src=\"img/empty/redopenbox.png\"></img></div>","key_press":null,"trial_type":"html-keyboard-response","trial_index":65,"time_elapsed":758387,"internal_node_id":"0.0-19.20-1.20"},{"rt":731.4250000054017,"stimulus":"<p>Choose a box,</p>","button_pressed":0,"trial_type":"html-button-response","trial_index":66,"time_elapsed":759122,"internal_node_id":"0.0-19.21-0.21"},{"reward":100,"trial_type":"html-keyboard-response","trial_index":67,"time_elapsed":759123,"internal_node_id":"0.0-19.21-1.21"},{"penalty":250,"trial_type":"html-keyboard-response","trial_index":67,"time_elapsed":759123,"internal_node_id":"0.0-19.21-1.21"},{"fined":false,"trial_type":"html-keyboard-response","trial_index":67,"time_elapsed":759123,"internal_node_id":"0.0-19.21-1.21"},{"rt":null,"stimulus":"<div style=\"background-color:#6dce98\"><h1 style=\"background-color:MediumSeaGreen\" >You earned 100 coins! Well done!</h1><div style=\"background-color:#6dce98\"><h1 style=\"background-color:MediumSeaGreen\" >Only 1150 left to go!</h1><img id=\"box\" src=\"img/prizes/coins2.png\"></img><img id=\"box\" src=\"img/empty/blueopenbox.png\"></img></div>","key_press":null,"trial_type":"html-keyboard-response","trial_index":67,"time_elapsed":762136,"internal_node_id":"0.0-19.21-1.21"},{"rt":851.4449999202043,"stimulus":"<p>Choose a box,</p>","button_pressed":2,"trial_type":"html-button-response","trial_index":68,"time_elapsed":762994,"internal_node_id":"0.0-19.22-0.22"},{"reward":50,"trial_type":"html-keyboard-response","trial_index":69,"time_elapsed":762995,"internal_node_id":"0.0-19.22-1.22"},{"penalty":50,"trial_type":"html-keyboard-response","trial_index":69,"time_elapsed":762996,"internal_node_id":"0.0-19.22-1.22"},{"fined":true,"trial_type":"html-keyboard-response","trial_index":69,"time_elapsed":762996,"internal_node_id":"0.0-19.22-1.22"},{"rt":null,"stimulus":"<div style=\"background-color:#ff7157\"><h1 style=\"background-color:MediumSeaGreen\">You earned 50 coins</h1><h1 h1 style=\"background-color:Tomato\">but you have recieved a fine of 50 coins</h1><h1 style=\"background-color:Tomato\">Remember, you need to keep going until you have 3000 coins!</h1><img id=\"box\" src=\"img/prizes/50.png\"></img><img id=\"box\" src=\"img/sad/purpleopenboxsadthumb.png\"></img></div>","key_press":null,"trial_type":"html-keyboard-response","trial_index":69,"time_elapsed":766002,"internal_node_id":"0.0-19.22-1.22"},{"rt":425.8799999952316,"stimulus":"<p>Choose a box,</p>","button_pressed":0,"trial_type":"html-button-response","trial_index":70,"time_elapsed":766434,"internal_node_id":"0.0-19.23-0.23"},{"reward":100,"trial_type":"html-keyboard-response","trial_index":71,"time_elapsed":766435,"internal_node_id":"0.0-19.23-1.23"},{"penalty":250,"trial_type":"html-keyboard-response","trial_index":71,"time_elapsed":766435,"internal_node_id":"0.0-19.23-1.23"},{"fined":false,"trial_type":"html-keyboard-response","trial_index":71,"time_elapsed":766435,"internal_node_id":"0.0-19.23-1.23"},{"rt":null,"stimulus":"<div style=\"background-color:#6dce98\"><h1 style=\"background-color:MediumSeaGreen\" >You earned 100 coins! Well done!</h1><div style=\"background-color:#6dce98\"><h1 style=\"background-color:MediumSeaGreen\" >Only 1050 left to go!</h1><img id=\"box\" src=\"img/prizes/coins2.png\"></img><img id=\"box\" src=\"img/empty/blueopenbox.png\"></img></div>","key_press":null,"trial_type":"html-keyboard-response","trial_index":71,"time_elapsed":769445,"internal_node_id":"0.0-19.23-1.23"},{"rt":438.094999990426,"stimulus":"<p>Choose a box,</p>","button_pressed":1,"trial_type":"html-button-response","trial_index":72,"time_elapsed":769888,"internal_node_id":"0.0-19.24-0.24"},{"reward":100,"trial_type":"html-keyboard-response","trial_index":73,"time_elapsed":769889,"internal_node_id":"0.0-19.24-1.24"},{"penalty":1250,"trial_type":"html-keyboard-response","trial_index":73,"time_elapsed":769889,"internal_node_id":"0.0-19.24-1.24"},{"fined":false,"trial_type":"html-keyboard-response","trial_index":73,"time_elapsed":769889,"internal_node_id":"0.0-19.24-1.24"},{"rt":null,"stimulus":"<div style=\"background-color:#6dce98\"><h1 style=\"background-color:MediumSeaGreen\" >You earned 100 coins! Well done!</h1><div style=\"background-color:#6dce98\"><h1 style=\"background-color:MediumSeaGreen\" >Only 950 left to go!</h1><img id=\"box\" src=\"img/prizes/coins2.png\"></img><img id=\"box\" src=\"img/empty/greenopenbox.png\"></img></div>","key_press":null,"trial_type":"html-keyboard-response","trial_index":73,"time_elapsed":772896,"internal_node_id":"0.0-19.24-1.24"},{"rt":479.87499996088445,"stimulus":"<p>Choose a box,</p>","button_pressed":3,"trial_type":"html-button-response","trial_index":74,"time_elapsed":773382,"internal_node_id":"0.0-19.25-0.25"},{"reward":50,"trial_type":"html-keyboard-response","trial_index":75,"time_elapsed":773383,"internal_node_id":"0.0-19.25-1.25"},{"penalty":250,"trial_type":"html-keyboard-response","trial_index":75,"time_elapsed":773383,"internal_node_id":"0.0-19.25-1.25"},{"fined":true,"trial_type":"html-keyboard-response","trial_index":75,"time_elapsed":773383,"internal_node_id":"0.0-19.25-1.25"},{"rt":null,"stimulus":"<div style=\"background-color:#ff7157\"><h1 style=\"background-color:MediumSeaGreen\">You earned 50 coins</h1><h1 h1 style=\"background-color:Tomato\">but you have recieved a fine of 250 coins</h1><h1 style=\"background-color:Tomato\">Remember, you need to keep going until you have 3000 coins!</h1><img id=\"box\" src=\"img/prizes/250.png\"></img><img id=\"box\" src=\"img/sad/redopenboxsadthumb.png\"></img></div>","key_press":null,"trial_type":"html-keyboard-response","trial_index":75,"time_elapsed":776395,"internal_node_id":"0.0-19.25-1.25"},{"rt":475.8750000037253,"stimulus":"<p>Choose a box,</p>","button_pressed":0,"trial_type":"html-button-response","trial_index":76,"time_elapsed":776876,"internal_node_id":"0.0-19.26-0.26"},{"reward":100,"trial_type":"html-keyboard-response","trial_index":77,"time_elapsed":776878,"internal_node_id":"0.0-19.26-1.26"},{"penalty":250,"trial_type":"html-keyboard-response","trial_index":77,"time_elapsed":776878,"internal_node_id":"0.0-19.26-1.26"},{"fined":false,"trial_type":"html-keyboard-response","trial_index":77,"time_elapsed":776878,"internal_node_id":"0.0-19.26-1.26"},{"rt":null,"stimulus":"<div style=\"background-color:#6dce98\"><h1 style=\"background-color:MediumSeaGreen\" >You earned 100 coins! Well done!</h1><div style=\"background-color:#6dce98\"><h1 style=\"background-color:MediumSeaGreen\" >Only 1050 left to go!</h1><img id=\"box\" src=\"img/prizes/coins2.png\"></img><img id=\"box\" src=\"img/empty/blueopenbox.png\"></img></div>","key_press":null,"trial_type":"html-keyboard-response","trial_index":77,"time_elapsed":779887,"internal_node_id":"0.0-19.26-1.26"},{"rt":409.8250000970438,"stimulus":"<p>Choose a box,</p>","button_pressed":1,"trial_type":"html-button-response","trial_index":78,"time_elapsed":780301,"internal_node_id":"0.0-19.27-0.27"},{"reward":100,"trial_type":"html-keyboard-response","trial_index":79,"time_elapsed":780302,"internal_node_id":"0.0-19.27-1.27"},{"penalty":1250,"trial_type":"html-keyboard-response","trial_index":79,"time_elapsed":780302,"internal_node_id":"0.0-19.27-1.27"},{"fined":false,"trial_type":"html-keyboard-response","trial_index":79,"time_elapsed":780302,"internal_node_id":"0.0-19.27-1.27"},{"rt":null,"stimulus":"<div style=\"background-color:#6dce98\"><h1 style=\"background-color:MediumSeaGreen\" >You earned 100 coins! Well done!</h1><div style=\"background-color:#6dce98\"><h1 style=\"background-color:MediumSeaGreen\" >Only 950 left to go!</h1><img id=\"box\" src=\"img/prizes/coins2.png\"></img><img id=\"box\" src=\"img/empty/greenopenbox.png\"></img></div>","key_press":null,"trial_type":"html-keyboard-response","trial_index":79,"time_elapsed":783312,"internal_node_id":"0.0-19.27-1.27"},{"rt":452.10999995470047,"stimulus":"<p>Choose a box,</p>","button_pressed":2,"trial_type":"html-button-response","trial_index":80,"time_elapsed":783770,"internal_node_id":"0.0-19.28-0.28"},{"reward":50,"trial_type":"html-keyboard-response","trial_index":81,"time_elapsed":783770,"internal_node_id":"0.0-19.28-1.28"},{"penalty":50,"trial_type":"html-keyboard-response","trial_index":81,"time_elapsed":783770,"internal_node_id":"0.0-19.28-1.28"},{"fined":false,"trial_type":"html-keyboard-response","trial_index":81,"time_elapsed":783771,"internal_node_id":"0.0-19.28-1.28"},{"rt":null,"stimulus":"<div style=\"background-color:#6dce98\"><h1 style=\"background-color:MediumSeaGreen\" >You earned 50 coins! Well done!</h1><div style=\"background-color:#6dce98\"><h1 style=\"background-color:MediumSeaGreen\" >Only 900 left to go!</h1><img id=\"box\" src=\"img/prizes/coins.png\"></img><img id=\"box\" src=\"img/empty/purpleopenbox.png\"></img></div>","key_press":null,"trial_type":"html-keyboard-response","trial_index":81,"time_elapsed":786783,"internal_node_id":"0.0-19.28-1.28"},{"rt":710.6299999868497,"stimulus":"<p>Choose a box,</p>","button_pressed":3,"trial_type":"html-button-response","trial_index":82,"time_elapsed":787499,"internal_node_id":"0.0-19.29-0.29"},{"reward":50,"trial_type":"html-keyboard-response","trial_index":83,"time_elapsed":787500,"internal_node_id":"0.0-19.29-1.29"},{"penalty":250,"trial_type":"html-keyboard-response","trial_index":83,"time_elapsed":787500,"internal_node_id":"0.0-19.29-1.29"},{"fined":true,"trial_type":"html-keyboard-response","trial_index":83,"time_elapsed":787500,"internal_node_id":"0.0-19.29-1.29"},{"rt":null,"stimulus":"<div style=\"background-color:#ff7157\"><h1 style=\"background-color:MediumSeaGreen\">You earned 50 coins</h1><h1 h1 style=\"background-color:Tomato\">but you have recieved a fine of 250 coins</h1><h1 style=\"background-color:Tomato\">Remember, you need to keep going until you have 3000 coins!</h1><img id=\"box\" src=\"img/prizes/250.png\"></img><img id=\"box\" src=\"img/sad/redopenboxsadthumb.png\"></img></div>","key_press":null,"trial_type":"html-keyboard-response","trial_index":83,"time_elapsed":790510,"internal_node_id":"0.0-19.29-1.29"},{"rt":489.850000012666,"stimulus":"<p>Choose a box,</p>","button_pressed":1,"trial_type":"html-button-response","trial_index":84,"time_elapsed":791005,"internal_node_id":"0.0-19.30-0.30"},{"reward":100,"trial_type":"html-keyboard-response","trial_index":85,"time_elapsed":791006,"internal_node_id":"0.0-19.30-1.30"},{"penalty":1250,"trial_type":"html-keyboard-response","trial_index":85,"time_elapsed":791006,"internal_node_id":"0.0-19.30-1.30"},{"fined":false,"trial_type":"html-keyboard-response","trial_index":85,"time_elapsed":791006,"internal_node_id":"0.0-19.30-1.30"},{"rt":null,"stimulus":"<div style=\"background-color:#6dce98\"><h1 style=\"background-color:MediumSeaGreen\" >You earned 100 coins! Well done!</h1><div style=\"background-color:#6dce98\"><h1 style=\"background-color:MediumSeaGreen\" >Only 1000 left to go!</h1><img id=\"box\" src=\"img/prizes/coins2.png\"></img><img id=\"box\" src=\"img/empty/greenopenbox.png\"></img></div>","key_press":null,"trial_type":"html-keyboard-response","trial_index":85,"time_elapsed":794017,"internal_node_id":"0.0-19.30-1.30"},{"rt":448.46500002313405,"stimulus":"<p>Choose a box,</p>","button_pressed":0,"trial_type":"html-button-response","trial_index":86,"time_elapsed":794470,"internal_node_id":"0.0-19.31-0.31"},{"reward":100,"trial_type":"html-keyboard-response","trial_index":87,"time_elapsed":794471,"internal_node_id":"0.0-19.31-1.31"},{"penalty":250,"trial_type":"html-keyboard-response","trial_index":87,"time_elapsed":794471,"internal_node_id":"0.0-19.31-1.31"},{"fined":true,"trial_type":"html-keyboard-response","trial_index":87,"time_elapsed":794471,"internal_node_id":"0.0-19.31-1.31"},{"rt":null,"stimulus":"<div style=\"background-color:#ff7157\"><h1 style=\"background-color:MediumSeaGreen\">You earned 100 coins</h1><h1 h1 style=\"background-color:Tomato\">but you have recieved a fine of 250 coins</h1><h1 style=\"background-color:Tomato\">Remember, you need to keep going until you have 3000 coins!</h1><img id=\"box\" src=\"img/prizes/250.png\"></img><img id=\"box\" src=\"img/sad/blueopenboxsadthumb.png\"></img></div>","key_press":null,"trial_type":"html-keyboard-response","trial_index":87,"time_elapsed":797480,"internal_node_id":"0.0-19.31-1.31"},{"rt":707.7699999790639,"stimulus":"<p>Choose a box,</p>","button_pressed":2,"trial_type":"html-button-response","trial_index":88,"time_elapsed":798196,"internal_node_id":"0.0-19.32-0.32"},{"reward":50,"trial_type":"html-keyboard-response","trial_index":89,"time_elapsed":798197,"internal_node_id":"0.0-19.32-1.32"},{"penalty":50,"trial_type":"html-keyboard-response","trial_index":89,"time_elapsed":798197,"internal_node_id":"0.0-19.32-1.32"},{"fined":false,"trial_type":"html-keyboard-response","trial_index":89,"time_elapsed":798197,"internal_node_id":"0.0-19.32-1.32"},{"rt":null,"stimulus":"<div style=\"background-color:#6dce98\"><h1 style=\"background-color:MediumSeaGreen\" >You earned 50 coins! Well done!</h1><div style=\"background-color:#6dce98\"><h1 style=\"background-color:MediumSeaGreen\" >Only 1100 left to go!</h1><img id=\"box\" src=\"img/prizes/coins.png\"></img><img id=\"box\" src=\"img/empty/purpleopenbox.png\"></img></div>","key_press":null,"trial_type":"html-keyboard-response","trial_index":89,"time_elapsed":801216,"internal_node_id":"0.0-19.32-1.32"},{"rt":459.2699999921024,"stimulus":"<p>Choose a box,</p>","button_pressed":1,"trial_type":"html-button-response","trial_index":90,"time_elapsed":801681,"internal_node_id":"0.0-19.33-0.33"},{"reward":100,"trial_type":"html-keyboard-response","trial_index":91,"time_elapsed":801681,"internal_node_id":"0.0-19.33-1.33"},{"penalty":1250,"trial_type":"html-keyboard-response","trial_index":91,"time_elapsed":801681,"internal_node_id":"0.0-19.33-1.33"},{"fined":false,"trial_type":"html-keyboard-response","trial_index":91,"time_elapsed":801681,"internal_node_id":"0.0-19.33-1.33"},{"rt":null,"stimulus":"<div style=\"background-color:#6dce98\"><h1 style=\"background-color:MediumSeaGreen\" >You earned 100 coins! Well done!</h1><div style=\"background-color:#6dce98\"><h1 style=\"background-color:MediumSeaGreen\" >Only 1000 left to go!</h1><img id=\"box\" src=\"img/prizes/coins2.png\"></img><img id=\"box\" src=\"img/empty/greenopenbox.png\"></img></div>","key_press":null,"trial_type":"html-keyboard-response","trial_index":91,"time_elapsed":804693,"internal_node_id":"0.0-19.33-1.33"},{"rt":440.8500000135973,"stimulus":"<p>Choose a box,</p>","button_pressed":3,"trial_type":"html-button-response","trial_index":92,"time_elapsed":805139,"internal_node_id":"0.0-19.34-0.34"},{"reward":50,"trial_type":"html-keyboard-response","trial_index":93,"time_elapsed":805140,"internal_node_id":"0.0-19.34-1.34"},{"penalty":250,"trial_type":"html-keyboard-response","trial_index":93,"time_elapsed":805140,"internal_node_id":"0.0-19.34-1.34"},{"fined":false,"trial_type":"html-keyboard-response","trial_index":93,"time_elapsed":805140,"internal_node_id":"0.0-19.34-1.34"},{"rt":null,"stimulus":"<div style=\"background-color:#6dce98\"><h1 style=\"background-color:MediumSeaGreen\" >You earned 50 coins! Well done!</h1><div style=\"background-color:#6dce98\"><h1 style=\"background-color:MediumSeaGreen\" >Only 950 left to go!</h1><img id=\"box\" src=\"img/prizes/coins.png\"></img><img id=\"box\" src=\"img/empty/redopenbox.png\"></img></div>","key_press":null,"trial_type":"html-keyboard-response","trial_index":93,"time_elapsed":808158,"internal_node_id":"0.0-19.34-1.34"},{"rt":452.8599999612197,"stimulus":"<p>Choose a box,</p>","button_pressed":2,"trial_type":"html-button-response","trial_index":94,"time_elapsed":808617,"internal_node_id":"0.0-19.35-0.35"},{"reward":50,"trial_type":"html-keyboard-response","trial_index":95,"time_elapsed":808618,"internal_node_id":"0.0-19.35-1.35"},{"penalty":50,"trial_type":"html-keyboard-response","trial_index":95,"time_elapsed":808618,"internal_node_id":"0.0-19.35-1.35"},{"fined":true,"trial_type":"html-keyboard-response","trial_index":95,"time_elapsed":808618,"internal_node_id":"0.0-19.35-1.35"},{"rt":null,"stimulus":"<div style=\"background-color:#ff7157\"><h1 style=\"background-color:MediumSeaGreen\">You earned 50 coins</h1><h1 h1 style=\"background-color:Tomato\">but you have recieved a fine of 50 coins</h1><h1 style=\"background-color:Tomato\">Remember, you need to keep going until you have 3000 coins!</h1><img id=\"box\" src=\"img/prizes/50.png\"></img><img id=\"box\" src=\"img/sad/purpleopenboxsadthumb.png\"></img></div>","key_press":null,"trial_type":"html-keyboard-response","trial_index":95,"time_elapsed":811630,"internal_node_id":"0.0-19.35-1.35"},{"rt":868.2650000555441,"stimulus":"<p>Choose a box,</p>","button_pressed":0,"trial_type":"html-button-response","trial_index":96,"time_elapsed":812503,"internal_node_id":"0.0-19.36-0.36"},{"reward":100,"trial_type":"html-keyboard-response","trial_index":97,"time_elapsed":812504,"internal_node_id":"0.0-19.36-1.36"},{"penalty":250,"trial_type":"html-keyboard-response","trial_index":97,"time_elapsed":812504,"internal_node_id":"0.0-19.36-1.36"},{"fined":false,"trial_type":"html-keyboard-response","trial_index":97,"time_elapsed":812504,"internal_node_id":"0.0-19.36-1.36"},{"rt":null,"stimulus":"<div style=\"background-color:#6dce98\"><h1 style=\"background-color:MediumSeaGreen\" >You earned 100 coins! Well done!</h1><div style=\"background-color:#6dce98\"><h1 style=\"background-color:MediumSeaGreen\" >Only 850 left to go!</h1><img id=\"box\" src=\"img/prizes/coins2.png\"></img><img id=\"box\" src=\"img/empty/blueopenbox.png\"></img></div>","key_press":null,"trial_type":"html-keyboard-response","trial_index":97,"time_elapsed":815510,"internal_node_id":"0.0-19.36-1.36"},{"rt":385.58999996166676,"stimulus":"<p>Choose a box,</p>","button_pressed":1,"trial_type":"html-button-response","trial_index":98,"time_elapsed":815900,"internal_node_id":"0.0-19.37-0.37"},{"reward":100,"trial_type":"html-keyboard-response","trial_index":99,"time_elapsed":815901,"internal_node_id":"0.0-19.37-1.37"},{"penalty":1250,"trial_type":"html-keyboard-response","trial_index":99,"time_elapsed":815901,"internal_node_id":"0.0-19.37-1.37"},{"fined":false,"trial_type":"html-keyboard-response","trial_index":99,"time_elapsed":815901,"internal_node_id":"0.0-19.37-1.37"},{"rt":null,"stimulus":"<div style=\"background-color:#6dce98\"><h1 style=\"background-color:MediumSeaGreen\" >You earned 100 coins! Well done!</h1><div style=\"background-color:#6dce98\"><h1 style=\"background-color:MediumSeaGreen\" >Only 750 left to go!</h1><img id=\"box\" src=\"img/prizes/coins2.png\"></img><img id=\"box\" src=\"img/empty/greenopenbox.png\"></img></div>","key_press":null,"trial_type":"html-keyboard-response","trial_index":99,"time_elapsed":818907,"internal_node_id":"0.0-19.37-1.37"},{"rt":468.4000000124797,"stimulus":"<p>Choose a box,</p>","button_pressed":0,"trial_type":"html-button-response","trial_index":100,"time_elapsed":819383,"internal_node_id":"0.0-19.38-0.38"},{"reward":100,"trial_type":"html-keyboard-response","trial_index":101,"time_elapsed":819384,"internal_node_id":"0.0-19.38-1.38"},{"penalty":250,"trial_type":"html-keyboard-response","trial_index":101,"time_elapsed":819384,"internal_node_id":"0.0-19.38-1.38"},{"fined":false,"trial_type":"html-keyboard-response","trial_index":101,"time_elapsed":819384,"internal_node_id":"0.0-19.38-1.38"},{"rt":null,"stimulus":"<div style=\"background-color:#6dce98\"><h1 style=\"background-color:MediumSeaGreen\" >You earned 100 coins! Well done!</h1><div style=\"background-color:#6dce98\"><h1 style=\"background-color:MediumSeaGreen\" >Only 650 left to go!</h1><img id=\"box\" src=\"img/prizes/coins2.png\"></img><img id=\"box\" src=\"img/empty/blueopenbox.png\"></img></div>","key_press":null,"trial_type":"html-keyboard-response","trial_index":101,"time_elapsed":822396,"internal_node_id":"0.0-19.38-1.38"},{"rt":539.5450000651181,"stimulus":"<p>Choose a box,</p>","button_pressed":3,"trial_type":"html-button-response","trial_index":102,"time_elapsed":822941,"internal_node_id":"0.0-19.39-0.39"},{"reward":50,"trial_type":"html-keyboard-response","trial_index":103,"time_elapsed":822942,"internal_node_id":"0.0-19.39-1.39"},{"penalty":250,"trial_type":"html-keyboard-response","trial_index":103,"time_elapsed":822942,"internal_node_id":"0.0-19.39-1.39"},{"fined":true,"trial_type":"html-keyboard-response","trial_index":103,"time_elapsed":822942,"internal_node_id":"0.0-19.39-1.39"},{"rt":null,"stimulus":"<div style=\"background-color:#ff7157\"><h1 style=\"background-color:MediumSeaGreen\">You earned 50 coins</h1><h1 h1 style=\"background-color:Tomato\">but you have recieved a fine of 250 coins</h1><h1 style=\"background-color:Tomato\">Remember, you need to keep going until you have 3000 coins!</h1><img id=\"box\" src=\"img/prizes/250.png\"></img><img id=\"box\" src=\"img/sad/redopenboxsadthumb.png\"></img></div>","key_press":null,"trial_type":"html-keyboard-response","trial_index":103,"time_elapsed":825958,"internal_node_id":"0.0-19.39-1.39"},{"rt":472.68999996595085,"stimulus":"<p>Choose a box,</p>","button_pressed":1,"trial_type":"html-button-response","trial_index":104,"time_elapsed":826436,"internal_node_id":"0.0-19.40-0.40"},{"reward":100,"trial_type":"html-keyboard-response","trial_index":105,"time_elapsed":826437,"internal_node_id":"0.0-19.40-1.40"},{"penalty":1250,"trial_type":"html-keyboard-response","trial_index":105,"time_elapsed":826437,"internal_node_id":"0.0-19.40-1.40"},{"fined":false,"trial_type":"html-keyboard-response","trial_index":105,"time_elapsed":826437,"internal_node_id":"0.0-19.40-1.40"},{"rt":null,"stimulus":"<div style=\"background-color:#6dce98\"><h1 style=\"background-color:MediumSeaGreen\" >You earned 100 coins! Well done!</h1><div style=\"background-color:#6dce98\"><h1 style=\"background-color:MediumSeaGreen\" >Only 750 left to go!</h1><img id=\"box\" src=\"img/prizes/coins2.png\"></img><img id=\"box\" src=\"img/empty/greenopenbox.png\"></img></div>","key_press":null,"trial_type":"html-keyboard-response","trial_index":105,"time_elapsed":829449,"internal_node_id":"0.0-19.40-1.40"},{"rt":415.7600000035018,"stimulus":"<p>Choose a box,</p>","button_pressed":2,"trial_type":"html-button-response","trial_index":106,"time_elapsed":829870,"internal_node_id":"0.0-19.41-0.41"},{"reward":50,"trial_type":"html-keyboard-response","trial_index":107,"time_elapsed":829871,"internal_node_id":"0.0-19.41-1.41"},{"penalty":50,"trial_type":"html-keyboard-response","trial_index":107,"time_elapsed":829871,"internal_node_id":"0.0-19.41-1.41"},{"fined":true,"trial_type":"html-keyboard-response","trial_index":107,"time_elapsed":829871,"internal_node_id":"0.0-19.41-1.41"},{"rt":null,"stimulus":"<div style=\"background-color:#ff7157\"><h1 style=\"background-color:MediumSeaGreen\">You earned 50 coins</h1><h1 h1 style=\"background-color:Tomato\">but you have recieved a fine of 50 coins</h1><h1 style=\"background-color:Tomato\">Remember, you need to keep going until you have 3000 coins!</h1><img id=\"box\" src=\"img/prizes/50.png\"></img><img id=\"box\" src=\"img/sad/purpleopenboxsadthumb.png\"></img></div>","key_press":null,"trial_type":"html-keyboard-response","trial_index":107,"time_elapsed":832874,"internal_node_id":"0.0-19.41-1.41"},{"rt":548.5450000269338,"stimulus":"<p>Choose a box,</p>","button_pressed":0,"trial_type":"html-button-response","trial_index":108,"time_elapsed":833430,"internal_node_id":"0.0-19.42-0.42"},{"reward":100,"trial_type":"html-keyboard-response","trial_index":109,"time_elapsed":833431,"internal_node_id":"0.0-19.42-1.42"},{"penalty":250,"trial_type":"html-keyboard-response","trial_index":109,"time_elapsed":833431,"internal_node_id":"0.0-19.42-1.42"},{"fined":false,"trial_type":"html-keyboard-response","trial_index":109,"time_elapsed":833431,"internal_node_id":"0.0-19.42-1.42"},{"rt":null,"stimulus":"<div style=\"background-color:#6dce98\"><h1 style=\"background-color:MediumSeaGreen\" >You earned 100 coins! Well done!</h1><div style=\"background-color:#6dce98\"><h1 style=\"background-color:MediumSeaGreen\" >Only 650 left to go!</h1><img id=\"box\" src=\"img/prizes/coins2.png\"></img><img id=\"box\" src=\"img/empty/blueopenbox.png\"></img></div>","key_press":null,"trial_type":"html-keyboard-response","trial_index":109,"time_elapsed":836445,"internal_node_id":"0.0-19.42-1.42"},{"rt":458.09500000905246,"stimulus":"<p>Choose a box,</p>","button_pressed":1,"trial_type":"html-button-response","trial_index":110,"time_elapsed":836909,"internal_node_id":"0.0-19.43-0.43"},{"reward":100,"trial_type":"html-keyboard-response","trial_index":111,"time_elapsed":836910,"internal_node_id":"0.0-19.43-1.43"},{"penalty":1250,"trial_type":"html-keyboard-response","trial_index":111,"time_elapsed":836910,"internal_node_id":"0.0-19.43-1.43"},{"fined":false,"trial_type":"html-keyboard-response","trial_index":111,"time_elapsed":836910,"internal_node_id":"0.0-19.43-1.43"},{"rt":null,"stimulus":"<div style=\"background-color:#6dce98\"><h1 style=\"background-color:MediumSeaGreen\" >You earned 100 coins! Well done!</h1><div style=\"background-color:#6dce98\"><h1 style=\"background-color:MediumSeaGreen\" >Only 550 left to go!</h1><img id=\"box\" src=\"img/prizes/coins2.png\"></img><img id=\"box\" src=\"img/empty/greenopenbox.png\"></img></div>","key_press":null,"trial_type":"html-keyboard-response","trial_index":111,"time_elapsed":839918,"internal_node_id":"0.0-19.43-1.43"},{"rt":435.51000009756535,"stimulus":"<p>Choose a box,</p>","button_pressed":3,"trial_type":"html-button-response","trial_index":112,"time_elapsed":840361,"internal_node_id":"0.0-19.44-0.44"},{"reward":50,"trial_type":"html-keyboard-response","trial_index":113,"time_elapsed":840362,"internal_node_id":"0.0-19.44-1.44"},{"penalty":250,"trial_type":"html-keyboard-response","trial_index":113,"time_elapsed":840362,"internal_node_id":"0.0-19.44-1.44"},{"fined":false,"trial_type":"html-keyboard-response","trial_index":113,"time_elapsed":840362,"internal_node_id":"0.0-19.44-1.44"},{"rt":null,"stimulus":"<div style=\"background-color:#6dce98\"><h1 style=\"background-color:MediumSeaGreen\" >You earned 50 coins! Well done!</h1><div style=\"background-color:#6dce98\"><h1 style=\"background-color:MediumSeaGreen\" >Only 500 left to go!</h1><img id=\"box\" src=\"img/prizes/coins.png\"></img><img id=\"box\" src=\"img/empty/redopenbox.png\"></img></div>","key_press":null,"trial_type":"html-keyboard-response","trial_index":113,"time_elapsed":843369,"internal_node_id":"0.0-19.44-1.44"},{"rt":503.9849999593571,"stimulus":"<p>Choose a box,</p>","button_pressed":0,"trial_type":"html-button-response","trial_index":114,"time_elapsed":843880,"internal_node_id":"0.0-19.45-0.45"},{"reward":100,"trial_type":"html-keyboard-response","trial_index":115,"time_elapsed":843884,"internal_node_id":"0.0-19.45-1.45"},{"penalty":250,"trial_type":"html-keyboard-response","trial_index":115,"time_elapsed":843884,"internal_node_id":"0.0-19.45-1.45"},{"fined":true,"trial_type":"html-keyboard-response","trial_index":115,"time_elapsed":843884,"internal_node_id":"0.0-19.45-1.45"},{"rt":null,"stimulus":"<div style=\"background-color:#ff7157\"><h1 style=\"background-color:MediumSeaGreen\">You earned 100 coins</h1><h1 h1 style=\"background-color:Tomato\">but you have recieved a fine of 250 coins</h1><h1 style=\"background-color:Tomato\">Remember, you need to keep going until you have 3000 coins!</h1><img id=\"box\" src=\"img/prizes/250.png\"></img><img id=\"box\" src=\"img/sad/blueopenboxsadthumb.png\"></img></div>","key_press":null,"trial_type":"html-keyboard-response","trial_index":115,"time_elapsed":846896,"internal_node_id":"0.0-19.45-1.45"},{"rt":432.4449999257922,"stimulus":"<p>Choose a box,</p>","button_pressed":1,"trial_type":"html-button-response","trial_index":116,"time_elapsed":847333,"internal_node_id":"0.0-19.46-0.46"},{"reward":100,"trial_type":"html-keyboard-response","trial_index":117,"time_elapsed":847334,"internal_node_id":"0.0-19.46-1.46"},{"penalty":1250,"trial_type":"html-keyboard-response","trial_index":117,"time_elapsed":847334,"internal_node_id":"0.0-19.46-1.46"},{"fined":false,"trial_type":"html-keyboard-response","trial_index":117,"time_elapsed":847334,"internal_node_id":"0.0-19.46-1.46"},{"rt":null,"stimulus":"<div style=\"background-color:#6dce98\"><h1 style=\"background-color:MediumSeaGreen\" >You earned 100 coins! Well done!</h1><div style=\"background-color:#6dce98\"><h1 style=\"background-color:MediumSeaGreen\" >Only 550 left to go!</h1><img id=\"box\" src=\"img/prizes/coins2.png\"></img><img id=\"box\" src=\"img/empty/greenopenbox.png\"></img></div>","key_press":null,"trial_type":"html-keyboard-response","trial_index":117,"time_elapsed":850342,"internal_node_id":"0.0-19.46-1.46"},{"rt":464.81999999377877,"stimulus":"<p>Choose a box,</p>","button_pressed":2,"trial_type":"html-button-response","trial_index":118,"time_elapsed":850811,"internal_node_id":"0.0-19.47-0.47"},{"reward":50,"trial_type":"html-keyboard-response","trial_index":119,"time_elapsed":850812,"internal_node_id":"0.0-19.47-1.47"},{"penalty":50,"trial_type":"html-keyboard-response","trial_index":119,"time_elapsed":850812,"internal_node_id":"0.0-19.47-1.47"},{"fined":false,"trial_type":"html-keyboard-response","trial_index":119,"time_elapsed":850812,"internal_node_id":"0.0-19.47-1.47"},{"rt":null,"stimulus":"<div style=\"background-color:#6dce98\"><h1 style=\"background-color:MediumSeaGreen\" >You earned 50 coins! Well done!</h1><div style=\"background-color:#6dce98\"><h1 style=\"background-color:MediumSeaGreen\" >Only 500 left to go!</h1><img id=\"box\" src=\"img/prizes/coins.png\"></img><img id=\"box\" src=\"img/empty/purpleopenbox.png\"></img></div>","key_press":null,"trial_type":"html-keyboard-response","trial_index":119,"time_elapsed":853818,"internal_node_id":"0.0-19.47-1.47"},{"rt":442.1050000237301,"stimulus":"<p>Choose a box,</p>","button_pressed":2,"trial_type":"html-button-response","trial_index":120,"time_elapsed":854267,"internal_node_id":"0.0-19.48-0.48"},{"reward":50,"trial_type":"html-keyboard-response","trial_index":121,"time_elapsed":854268,"internal_node_id":"0.0-19.48-1.48"},{"penalty":50,"trial_type":"html-keyboard-response","trial_index":121,"time_elapsed":854268,"internal_node_id":"0.0-19.48-1.48"},{"fined":true,"trial_type":"html-keyboard-response","trial_index":121,"time_elapsed":854268,"internal_node_id":"0.0-19.48-1.48"},{"rt":null,"stimulus":"<div style=\"background-color:#ff7157\"><h1 style=\"background-color:MediumSeaGreen\">You earned 50 coins</h1><h1 h1 style=\"background-color:Tomato\">but you have recieved a fine of 50 coins</h1><h1 style=\"background-color:Tomato\">Remember, you need to keep going until you have 3000 coins!</h1><img id=\"box\" src=\"img/prizes/50.png\"></img><img id=\"box\" src=\"img/sad/purpleopenboxsadthumb.png\"></img></div>","key_press":null,"trial_type":"html-keyboard-response","trial_index":121,"time_elapsed":857279,"internal_node_id":"0.0-19.48-1.48"},{"rt":759.6050000283867,"stimulus":"<p>Choose a box,</p>","button_pressed":0,"trial_type":"html-button-response","trial_index":122,"time_elapsed":858045,"internal_node_id":"0.0-19.49-0.49"},{"reward":100,"trial_type":"html-keyboard-response","trial_index":123,"time_elapsed":858046,"internal_node_id":"0.0-19.49-1.49"},{"penalty":250,"trial_type":"html-keyboard-response","trial_index":123,"time_elapsed":858046,"internal_node_id":"0.0-19.49-1.49"},{"fined":true,"trial_type":"html-keyboard-response","trial_index":123,"time_elapsed":858046,"internal_node_id":"0.0-19.49-1.49"},{"rt":null,"stimulus":"<div style=\"background-color:#ff7157\"><h1 style=\"background-color:MediumSeaGreen\">You earned 100 coins</h1><h1 h1 style=\"background-color:Tomato\">but you have recieved a fine of 250 coins</h1><h1 style=\"background-color:Tomato\">Remember, you need to keep going until you have 3000 coins!</h1><img id=\"box\" src=\"img/prizes/250.png\"></img><img id=\"box\" src=\"img/sad/blueopenboxsadthumb.png\"></img></div>","key_press":null,"trial_type":"html-keyboard-response","trial_index":123,"time_elapsed":861058,"internal_node_id":"0.0-19.49-1.49"},{"rt":416.88999999314547,"stimulus":"<p>Choose a box,</p>","button_pressed":3,"trial_type":"html-button-response","trial_index":124,"time_elapsed":861484,"internal_node_id":"0.0-19.50-0.50"},{"reward":50,"trial_type":"html-keyboard-response","trial_index":125,"time_elapsed":861484,"internal_node_id":"0.0-19.50-1.50"},{"penalty":250,"trial_type":"html-keyboard-response","trial_index":125,"time_elapsed":861485,"internal_node_id":"0.0-19.50-1.50"},{"fined":false,"trial_type":"html-keyboard-response","trial_index":125,"time_elapsed":861485,"internal_node_id":"0.0-19.50-1.50"},{"rt":null,"stimulus":"<div style=\"background-color:#6dce98\"><h1 style=\"background-color:MediumSeaGreen\" >You earned 50 coins! Well done!</h1><div style=\"background-color:#6dce98\"><h1 style=\"background-color:MediumSeaGreen\" >Only 600 left to go!</h1><img id=\"box\" src=\"img/prizes/coins.png\"></img><img id=\"box\" src=\"img/empty/redopenbox.png\"></img></div>","key_press":null,"trial_type":"html-keyboard-response","trial_index":125,"time_elapsed":864497,"internal_node_id":"0.0-19.50-1.50"},{"rt":650.374999968335,"stimulus":"<p>Choose a box,</p>","button_pressed":1,"trial_type":"html-button-response","trial_index":126,"time_elapsed":865152,"internal_node_id":"0.0-19.51-0.51"},{"reward":100,"trial_type":"html-keyboard-response","trial_index":127,"time_elapsed":865153,"internal_node_id":"0.0-19.51-1.51"},{"penalty":1250,"trial_type":"html-keyboard-response","trial_index":127,"time_elapsed":865153,"internal_node_id":"0.0-19.51-1.51"},{"fined":false,"trial_type":"html-keyboard-response","trial_index":127,"time_elapsed":865153,"internal_node_id":"0.0-19.51-1.51"},{"rt":null,"stimulus":"<div style=\"background-color:#6dce98\"><h1 style=\"background-color:MediumSeaGreen\" >You earned 100 coins! Well done!</h1><div style=\"background-color:#6dce98\"><h1 style=\"background-color:MediumSeaGreen\" >Only 500 left to go!</h1><img id=\"box\" src=\"img/prizes/coins2.png\"></img><img id=\"box\" src=\"img/empty/greenopenbox.png\"></img></div>","key_press":null,"trial_type":"html-keyboard-response","trial_index":127,"time_elapsed":868162,"internal_node_id":"0.0-19.51-1.51"},{"rt":479.7099999850616,"stimulus":"<p>Choose a box,</p>","button_pressed":2,"trial_type":"html-button-response","trial_index":128,"time_elapsed":868646,"internal_node_id":"0.0-19.52-0.52"},{"reward":50,"trial_type":"html-keyboard-response","trial_index":129,"time_elapsed":868647,"internal_node_id":"0.0-19.52-1.52"},{"penalty":50,"trial_type":"html-keyboard-response","trial_index":129,"time_elapsed":868647,"internal_node_id":"0.0-19.52-1.52"},{"fined":false,"trial_type":"html-keyboard-response","trial_index":129,"time_elapsed":868647,"internal_node_id":"0.0-19.52-1.52"},{"rt":null,"stimulus":"<div style=\"background-color:#6dce98\"><h1 style=\"background-color:MediumSeaGreen\" >You earned 50 coins! Well done!</h1><div style=\"background-color:#6dce98\"><h1 style=\"background-color:MediumSeaGreen\" >Only 450 left to go!</h1><img id=\"box\" src=\"img/prizes/coins.png\"></img><img id=\"box\" src=\"img/empty/purpleopenbox.png\"></img></div>","key_press":null,"trial_type":"html-keyboard-response","trial_index":129,"time_elapsed":871659,"internal_node_id":"0.0-19.52-1.52"},{"rt":719.3499999120831,"stimulus":"<p>Choose a box,</p>","button_pressed":0,"trial_type":"html-button-response","trial_index":130,"time_elapsed":872381,"internal_node_id":"0.0-19.53-0.53"},{"reward":100,"trial_type":"html-keyboard-response","trial_index":131,"time_elapsed":872382,"internal_node_id":"0.0-19.53-1.53"},{"penalty":250,"trial_type":"html-keyboard-response","trial_index":131,"time_elapsed":872382,"internal_node_id":"0.0-19.53-1.53"},{"fined":false,"trial_type":"html-keyboard-response","trial_index":131,"time_elapsed":872382,"internal_node_id":"0.0-19.53-1.53"},{"rt":null,"stimulus":"<div style=\"background-color:#6dce98\"><h1 style=\"background-color:MediumSeaGreen\" >You earned 100 coins! Well done!</h1><div style=\"background-color:#6dce98\"><h1 style=\"background-color:MediumSeaGreen\" >Only 350 left to go!</h1><img id=\"box\" src=\"img/prizes/coins2.png\"></img><img id=\"box\" src=\"img/empty/blueopenbox.png\"></img></div>","key_press":null,"trial_type":"html-keyboard-response","trial_index":131,"time_elapsed":875391,"internal_node_id":"0.0-19.53-1.53"},{"rt":464.1350000165403,"stimulus":"<p>Choose a box,</p>","button_pressed":1,"trial_type":"html-button-response","trial_index":132,"time_elapsed":875859,"internal_node_id":"0.0-19.54-0.54"},{"reward":100,"trial_type":"html-keyboard-response","trial_index":133,"time_elapsed":875860,"internal_node_id":"0.0-19.54-1.54"},{"penalty":1250,"trial_type":"html-keyboard-response","trial_index":133,"time_elapsed":875860,"internal_node_id":"0.0-19.54-1.54"},{"fined":false,"trial_type":"html-keyboard-response","trial_index":133,"time_elapsed":875860,"internal_node_id":"0.0-19.54-1.54"},{"rt":null,"stimulus":"<div style=\"background-color:#6dce98\"><h1 style=\"background-color:MediumSeaGreen\" >You earned 100 coins! Well done!</h1><div style=\"background-color:#6dce98\"><h1 style=\"background-color:MediumSeaGreen\" >Only 250 left to go!</h1><img id=\"box\" src=\"img/prizes/coins2.png\"></img><img id=\"box\" src=\"img/empty/greenopenbox.png\"></img></div>","key_press":null,"trial_type":"html-keyboard-response","trial_index":133,"time_elapsed":878872,"internal_node_id":"0.0-19.54-1.54"},{"rt":442.2999999951571,"stimulus":"<p>Choose a box,</p>","button_pressed":3,"trial_type":"html-button-response","trial_index":134,"time_elapsed":879320,"internal_node_id":"0.0-19.55-0.55"},{"reward":50,"trial_type":"html-keyboard-response","trial_index":135,"time_elapsed":879323,"internal_node_id":"0.0-19.55-1.55"},{"penalty":250,"trial_type":"html-keyboard-response","trial_index":135,"time_elapsed":879323,"internal_node_id":"0.0-19.55-1.55"},{"fined":false,"trial_type":"html-keyboard-response","trial_index":135,"time_elapsed":879323,"internal_node_id":"0.0-19.55-1.55"},{"rt":null,"stimulus":"<div style=\"background-color:#6dce98\"><h1 style=\"background-color:MediumSeaGreen\" >You earned 50 coins! Well done!</h1><div style=\"background-color:#6dce98\"><h1 style=\"background-color:MediumSeaGreen\" >Only 200 left to go!</h1><img id=\"box\" src=\"img/prizes/coins.png\"></img><img id=\"box\" src=\"img/empty/redopenbox.png\"></img></div>","key_press":null,"trial_type":"html-keyboard-response","trial_index":135,"time_elapsed":882330,"internal_node_id":"0.0-19.55-1.55"},{"rt":467.2099999152124,"stimulus":"<p>Choose a box,</p>","button_pressed":2,"trial_type":"html-button-response","trial_index":136,"time_elapsed":882802,"internal_node_id":"0.0-19.56-0.56"},{"reward":50,"trial_type":"html-keyboard-response","trial_index":137,"time_elapsed":882803,"internal_node_id":"0.0-19.56-1.56"},{"penalty":50,"trial_type":"html-keyboard-response","trial_index":137,"time_elapsed":882803,"internal_node_id":"0.0-19.56-1.56"},{"fined":true,"trial_type":"html-keyboard-response","trial_index":137,"time_elapsed":882803,"internal_node_id":"0.0-19.56-1.56"},{"rt":null,"stimulus":"<div style=\"background-color:#ff7157\"><h1 style=\"background-color:MediumSeaGreen\">You earned 50 coins</h1><h1 h1 style=\"background-color:Tomato\">but you have recieved a fine of 50 coins</h1><h1 style=\"background-color:Tomato\">Remember, you need to keep going until you have 3000 coins!</h1><img id=\"box\" src=\"img/prizes/50.png\"></img><img id=\"box\" src=\"img/sad/purpleopenboxsadthumb.png\"></img></div>","key_press":null,"trial_type":"html-keyboard-response","trial_index":137,"time_elapsed":885815,"internal_node_id":"0.0-19.56-1.56"},{"rt":450.72500000242144,"stimulus":"<p>Choose a box,</p>","button_pressed":1,"trial_type":"html-button-response","trial_index":138,"time_elapsed":886273,"internal_node_id":"0.0-19.57-0.57"},{"reward":100,"trial_type":"html-keyboard-response","trial_index":139,"time_elapsed":886274,"internal_node_id":"0.0-19.57-1.57"},{"penalty":1250,"trial_type":"html-keyboard-response","trial_index":139,"time_elapsed":886274,"internal_node_id":"0.0-19.57-1.57"},{"fined":false,"trial_type":"html-keyboard-response","trial_index":139,"time_elapsed":886274,"internal_node_id":"0.0-19.57-1.57"},{"rt":null,"stimulus":"<div style=\"background-color:#6dce98\"><h1 style=\"background-color:MediumSeaGreen\" >You earned 100 coins! Well done!</h1><div style=\"background-color:#6dce98\"><h1 style=\"background-color:MediumSeaGreen\" >Only 100 left to go!</h1><img id=\"box\" src=\"img/prizes/coins2.png\"></img><img id=\"box\" src=\"img/empty/greenopenbox.png\"></img></div>","key_press":null,"trial_type":"html-keyboard-response","trial_index":139,"time_elapsed":889280,"internal_node_id":"0.0-19.57-1.57"},{"rt":510.8799999579787,"stimulus":"<p>Choose a box,</p>","button_pressed":0,"trial_type":"html-button-response","trial_index":140,"time_elapsed":889795,"internal_node_id":"0.0-19.58-0.58"},{"reward":100,"trial_type":"html-keyboard-response","trial_index":141,"time_elapsed":889795,"internal_node_id":"0.0-19.58-1.58"},{"penalty":250,"trial_type":"html-keyboard-response","trial_index":141,"time_elapsed":889795,"internal_node_id":"0.0-19.58-1.58"},{"fined":true,"trial_type":"html-keyboard-response","trial_index":141,"time_elapsed":889795,"internal_node_id":"0.0-19.58-1.58"},{"rt":null,"stimulus":"<div style=\"background-color:#ff7157\"><h1 style=\"background-color:MediumSeaGreen\">You earned 100 coins</h1><h1 h1 style=\"background-color:Tomato\">but you have recieved a fine of 250 coins</h1><h1 style=\"background-color:Tomato\">Remember, you need to keep going until you have 3000 coins!</h1><img id=\"box\" src=\"img/prizes/250.png\"></img><img id=\"box\" src=\"img/sad/blueopenboxsadthumb.png\"></img></div>","key_press":null,"trial_type":"html-keyboard-response","trial_index":141,"time_elapsed":892801,"internal_node_id":"0.0-19.58-1.58"},{"rt":466.4649999467656,"stimulus":"<p>Choose a box,</p>","button_pressed":2,"trial_type":"html-button-response","trial_index":142,"time_elapsed":893274,"internal_node_id":"0.0-19.59-0.59"},{"reward":50,"trial_type":"html-keyboard-response","trial_index":143,"time_elapsed":893276,"internal_node_id":"0.0-19.59-1.59"},{"penalty":50,"trial_type":"html-keyboard-response","trial_index":143,"time_elapsed":893276,"internal_node_id":"0.0-19.59-1.59"},{"fined":true,"trial_type":"html-keyboard-response","trial_index":143,"time_elapsed":893276,"internal_node_id":"0.0-19.59-1.59"},{"rt":null,"stimulus":"<div style=\"background-color:#ff7157\"><h1 style=\"background-color:MediumSeaGreen\">You earned 50 coins</h1><h1 h1 style=\"background-color:Tomato\">but you have recieved a fine of 50 coins</h1><h1 style=\"background-color:Tomato\">Remember, you need to keep going until you have 3000 coins!</h1><img id=\"box\" src=\"img/prizes/50.png\"></img><img id=\"box\" src=\"img/sad/purpleopenboxsadthumb.png\"></img></div>","key_press":null,"trial_type":"html-keyboard-response","trial_index":143,"time_elapsed":896280,"internal_node_id":"0.0-19.59-1.59"},{"rt":500.6149999098852,"stimulus":"<p>Choose a box,</p>","button_pressed":1,"trial_type":"html-button-response","trial_index":144,"time_elapsed":896786,"internal_node_id":"0.0-19.60-0.60"},{"reward":100,"trial_type":"html-keyboard-response","trial_index":145,"time_elapsed":896787,"internal_node_id":"0.0-19.60-1.60"},{"penalty":1250,"trial_type":"html-keyboard-response","trial_index":145,"time_elapsed":896787,"internal_node_id":"0.0-19.60-1.60"},{"fined":false,"trial_type":"html-keyboard-response","trial_index":145,"time_elapsed":896787,"internal_node_id":"0.0-19.60-1.60"},{"rt":null,"stimulus":"<div style=\"background-color:#6dce98\"><h1 style=\"background-color:MediumSeaGreen\" >You earned 100 coins! Well done!</h1><div style=\"background-color:#6dce98\"><h1 style=\"background-color:MediumSeaGreen\" >Only 150 left to go!</h1><img id=\"box\" src=\"img/prizes/coins2.png\"></img><img id=\"box\" src=\"img/empty/greenopenbox.png\"></img></div>","key_press":null,"trial_type":"html-keyboard-response","trial_index":145,"time_elapsed":899804,"internal_node_id":"0.0-19.60-1.60"},{"rt":966.3500000024214,"stimulus":"<p>Choose a box,</p>","button_pressed":0,"trial_type":"html-button-response","trial_index":146,"time_elapsed":900776,"internal_node_id":"0.0-19.61-0.61"},{"reward":100,"trial_type":"html-keyboard-response","trial_index":147,"time_elapsed":900777,"internal_node_id":"0.0-19.61-1.61"},{"penalty":250,"trial_type":"html-keyboard-response","trial_index":147,"time_elapsed":900777,"internal_node_id":"0.0-19.61-1.61"},{"fined":true,"trial_type":"html-keyboard-response","trial_index":147,"time_elapsed":900777,"internal_node_id":"0.0-19.61-1.61"},{"rt":null,"stimulus":"<div style=\"background-color:#ff7157\"><h1 style=\"background-color:MediumSeaGreen\">You earned 100 coins</h1><h1 h1 style=\"background-color:Tomato\">but you have recieved a fine of 250 coins</h1><h1 style=\"background-color:Tomato\">Remember, you need to keep going until you have 3000 coins!</h1><img id=\"box\" src=\"img/prizes/250.png\"></img><img id=\"box\" src=\"img/sad/blueopenboxsadthumb.png\"></img></div>","key_press":null,"trial_type":"html-keyboard-response","trial_index":147,"time_elapsed":903781,"internal_node_id":"0.0-19.61-1.61"},{"rt":436.9299999671057,"stimulus":"<p>Choose a box,</p>","button_pressed":3,"trial_type":"html-button-response","trial_index":148,"time_elapsed":904224,"internal_node_id":"0.0-19.62-0.62"},{"reward":50,"trial_type":"html-keyboard-response","trial_index":149,"time_elapsed":904225,"internal_node_id":"0.0-19.62-1.62"},{"penalty":250,"trial_type":"html-keyboard-response","trial_index":149,"time_elapsed":904225,"internal_node_id":"0.0-19.62-1.62"},{"fined":false,"trial_type":"html-keyboard-response","trial_index":149,"time_elapsed":904225,"internal_node_id":"0.0-19.62-1.62"},{"rt":null,"stimulus":"<div style=\"background-color:#6dce98\"><h1 style=\"background-color:MediumSeaGreen\" >You earned 50 coins! Well done!</h1><div style=\"background-color:#6dce98\"><h1 style=\"background-color:MediumSeaGreen\" >Only 250 left to go!</h1><img id=\"box\" src=\"img/prizes/coins.png\"></img><img id=\"box\" src=\"img/empty/redopenbox.png\"></img></div>","key_press":null,"trial_type":"html-keyboard-response","trial_index":149,"time_elapsed":907232,"internal_node_id":"0.0-19.62-1.62"},{"rt":450.19000000320375,"stimulus":"<p>Choose a box,</p>","button_pressed":1,"trial_type":"html-button-response","trial_index":150,"time_elapsed":907691,"internal_node_id":"0.0-19.63-0.63"},{"reward":100,"trial_type":"html-keyboard-response","trial_index":151,"time_elapsed":907692,"internal_node_id":"0.0-19.63-1.63"},{"penalty":1250,"trial_type":"html-keyboard-response","trial_index":151,"time_elapsed":907693,"internal_node_id":"0.0-19.63-1.63"},{"fined":false,"trial_type":"html-keyboard-response","trial_index":151,"time_elapsed":907693,"internal_node_id":"0.0-19.63-1.63"},{"rt":null,"stimulus":"<div style=\"background-color:#6dce98\"><h1 style=\"background-color:MediumSeaGreen\" >You earned 100 coins! Well done!</h1><div style=\"background-color:#6dce98\"><h1 style=\"background-color:MediumSeaGreen\" >Only 150 left to go!</h1><img id=\"box\" src=\"img/prizes/coins2.png\"></img><img id=\"box\" src=\"img/empty/greenopenbox.png\"></img></div>","key_press":null,"trial_type":"html-keyboard-response","trial_index":151,"time_elapsed":910700,"internal_node_id":"0.0-19.63-1.63"},{"rt":435.3700000792742,"stimulus":"<p>Choose a box,</p>","button_pressed":2,"trial_type":"html-button-response","trial_index":152,"time_elapsed":911141,"internal_node_id":"0.0-19.64-0.64"},{"reward":50,"trial_type":"html-keyboard-response","trial_index":153,"time_elapsed":911142,"internal_node_id":"0.0-19.64-1.64"},{"penalty":50,"trial_type":"html-keyboard-response","trial_index":153,"time_elapsed":911142,"internal_node_id":"0.0-19.64-1.64"},{"fined":false,"trial_type":"html-keyboard-response","trial_index":153,"time_elapsed":911142,"internal_node_id":"0.0-19.64-1.64"},{"rt":null,"stimulus":"<div style=\"background-color:#6dce98\"><h1 style=\"background-color:MediumSeaGreen\" >You earned 50 coins! Well done!</h1><div style=\"background-color:#6dce98\"><h1 style=\"background-color:MediumSeaGreen\" >Only 100 left to go!</h1><img id=\"box\" src=\"img/prizes/coins.png\"></img><img id=\"box\" src=\"img/empty/purpleopenbox.png\"></img></div>","key_press":null,"trial_type":"html-keyboard-response","trial_index":153,"time_elapsed":914152,"internal_node_id":"0.0-19.64-1.64"},{"rt":441.2699999520555,"stimulus":"<p>Choose a box,</p>","button_pressed":0,"trial_type":"html-button-response","trial_index":154,"time_elapsed":914598,"internal_node_id":"0.0-19.65-0.65"},{"reward":100,"trial_type":"html-keyboard-response","trial_index":155,"time_elapsed":914599,"internal_node_id":"0.0-19.65-1.65"},{"penalty":250,"trial_type":"html-keyboard-response","trial_index":155,"time_elapsed":914599,"internal_node_id":"0.0-19.65-1.65"},{"fined":false,"trial_type":"html-keyboard-response","trial_index":155,"time_elapsed":914599,"internal_node_id":"0.0-19.65-1.65"},{"rt":null,"stimulus":"<div style=\"background-color:#6dce98\"><h1 style=\"background-color:MediumSeaGreen\" >You earned 100 coins! Well done!</h1><div style=\"background-color:#6dce98\"><h1 style=\"background-color:MediumSeaGreen\" >Only 0 left to go!</h1><img id=\"box\" src=\"img/prizes/coins2.png\"></img><img id=\"box\" src=\"img/empty/blueopenbox.png\"></img></div>","key_press":null,"trial_type":"html-keyboard-response","trial_index":155,"time_elapsed":917608,"internal_node_id":"0.0-19.65-1.65"},{"rt":149954.42000008188,"responses":"{\"Q0\":\"I think this experiment was really great.\",\"Q1\":\"I didn't have any specific strategy.\"}","trial_type":"survey-text","trial_index":156,"time_elapsed":1067603,"internal_node_id":"0.0-20.0"}]