[{"view_history":"[{\"page_index\":0,\"viewing_time\":18427.400000044145},{\"page_index\":1,\"viewing_time\":22439.56500000786},{\"page_index\":2,\"viewing_time\":12383.934999932535},{\"page_index\":3,\"viewing_time\":13176.010000053793},{\"page_index\":4,\"viewing_time\":17975.97000002861},{\"page_index\":5,\"viewing_time\":17031.87499998603}]","rt":101435.51500001922,"trial_type":"instructions","trial_index":0,"time_elapsed":101442,"internal_node_id":"0.0-0.0"},{"rt":33037.7650000155,"responses":"{\"Q0\":\"Yes\",\"Q1\":\"Yes\",\"Q2\":\"Yes\"}","question_order":"[0,1,2]","trial_type":"survey-multi-choice","trial_index":1,"time_elapsed":134481,"internal_node_id":"0.0-1.0-0.0"},{"rt":32700.1750000054,"responses":"{\"Q0\":\"Yes\",\"Q1\":\"No\",\"Q2\":\"No\"}","question_order":"[0,1,2]","trial_type":"survey-multi-choice","trial_index":2,"time_elapsed":167185,"internal_node_id":"0.0-2.0-0.0"},{"rt":3190.485000028275,"responses":"{\"Q0\":\"Yes\",\"Q1\":\"Yes\",\"Q2\":\"Yes\"}","question_order":"[0,1,2]","trial_type":"survey-multi-choice","trial_index":3,"time_elapsed":176553,"internal_node_id":"0.0-2.1-0.1"},{"rt":6523.999999975786,"responses":"{\"Q0\":\"607896a636a6dc639fb0785b\"}","trial_type":"survey-text","trial_index":4,"time_elapsed":183081,"internal_node_id":"0.0-3.0"},{"rt":5015.354999923147,"responses":"{\"Q0\":\"Male\",\"Q1\":\"18-25\"}","question_order":"[0,1]","trial_type":"survey-multi-choice","trial_index":5,"time_elapsed":188097,"internal_node_id":"0.0-4.0"},{"rt":5692.135000019334,"responses":"{\"Q0\":\"\"}","trial_type":"survey-text","trial_index":6,"time_elapsed":193793,"internal_node_id":"0.0-5.0"},{"view_history":"[{\"page_index\":0,\"viewing_time\":4591.239999979734}]","rt":4591.424999991432,"trial_type":"instructions","trial_index":7,"time_elapsed":198385,"internal_node_id":"0.0-6.0"},{"rt":21119.324999977835,"responses":"{\"Interested\":2,\"Distressed\":1,\"Excited\":3,\"Upset\":1}","question_order":"[0,1,2,3]","trial_type":"survey-likert","trial_index":8,"time_elapsed":219505,"internal_node_id":"0.0-7.0"},{"rt":11884.33500006795,"responses":"{\"Strong\":3,\"Guilty\":0,\"Scared\":0,\"Hostile\":1}","question_order":"[0,1,2,3]","trial_type":"survey-likert","trial_index":9,"time_elapsed":231393,"internal_node_id":"0.0-8.0"},{"rt":9452.825000043958,"responses":"{\"Enthusiastic\":2,\"Proud\":3,\"Irritable\":1,\"Alert\":2}","question_order":"[0,1,2,3]","trial_type":"survey-likert","trial_index":10,"time_elapsed":240849,"internal_node_id":"0.0-9.0"},{"rt":15636.935000075027,"responses":"{\"Ashamed\":1,\"Inspired\":2,\"Nervous\":1,\"Determined\":1}","question_order":"[0,1,2,3]","trial_type":"survey-likert","trial_index":11,"time_elapsed":256489,"internal_node_id":"0.0-10.0"},{"rt":15100.594999967143,"responses":"{\"Attentive\":2,\"Jittery\":2,\"Active\":3,\"Afraid\":0}","question_order":"[0,1,2,3]","trial_type":"survey-likert","trial_index":12,"time_elapsed":271594,"internal_node_id":"0.0-11.0"},{"rt":29884.409999940544,"responses":"{\"Q0\":1,\"Q1\":0,\"Q2\":2,\"Q3\":0}","question_order":"[0,1,2,3]","trial_type":"survey-likert","trial_index":13,"time_elapsed":301481,"internal_node_id":"0.0-12.0"},{"rt":20916.77000001073,"responses":"{\"Q0\":0,\"Q1\":0,\"Q2\":0,\"Q3\":0}","question_order":"[0,1,2,3]","trial_type":"survey-likert","trial_index":14,"time_elapsed":322401,"internal_node_id":"0.0-13.0"},{"rt":27524.850000045262,"responses":"{\"Q0\":1,\"Q1\":0,\"Q2\":1,\"Q3\":1}","question_order":"[0,1,2,3]","trial_type":"survey-likert","trial_index":15,"time_elapsed":349929,"internal_node_id":"0.0-14.0"},{"rt":23548.914999933913,"responses":"{\"Q0\":0,\"Q1\":1,\"Q2\":0}","question_order":"[0,1,2]","trial_type":"survey-likert","trial_index":16,"time_elapsed":373481,"internal_node_id":"0.0-15.0"},{"view_history":"[{\"page_index\":0,\"viewing_time\":3011.865000007674},{\"page_index\":1,\"viewing_time\":17279.830000014044},{\"page_index\":2,\"viewing_time\":8903.98499998264}]","rt":29196.270000073127,"trial_type":"instructions","trial_index":17,"time_elapsed":402681,"internal_node_id":"0.0-16.0"},{"rt":1182.6500000897795,"stimulus":"<p>Choose a box,</p>","button_pressed":1,"trial_type":"html-button-response","trial_index":18,"time_elapsed":403865,"internal_node_id":"0.0-17.0-0.0"},{"reward":100,"trial_type":"html-keyboard-response","trial_index":19,"time_elapsed":403865,"internal_node_id":"0.0-17.0-1.0"},{"penalty":1250,"trial_type":"html-keyboard-response","trial_index":19,"time_elapsed":403865,"internal_node_id":"0.0-17.0-1.0"},{"fined":false,"trial_type":"html-keyboard-response","trial_index":19,"time_elapsed":403865,"internal_node_id":"0.0-17.0-1.0"},{"rt":null,"stimulus":"<div style=\"background-color:#6dce98\"><h1 style=\"background-color:MediumSeaGreen\" >You earned 100 coins! Well done!</h1><div style=\"background-color:#6dce98\"><h1 style=\"background-color:MediumSeaGreen\" >Only 1400 left to go!</h1><img id=\"box\" src=\"img/prizes/coins2.png\"></img><img id=\"box\" src=\"img/empty/greenopenbox.png\"></img></div>","key_press":null,"trial_type":"html-keyboard-response","trial_index":19,"time_elapsed":406866,"internal_node_id":"0.0-17.0-1.0"},{"rt":4005.3749999497086,"stimulus":"<p>Choose a box,</p>","button_pressed":3,"trial_type":"html-button-response","trial_index":20,"time_elapsed":410872,"internal_node_id":"0.0-17.0-0.1"},{"reward":50,"trial_type":"html-keyboard-response","trial_index":21,"time_elapsed":410873,"internal_node_id":"0.0-17.0-1.1"},{"penalty":250,"trial_type":"html-keyboard-response","trial_index":21,"time_elapsed":410873,"internal_node_id":"0.0-17.0-1.1"},{"fined":true,"trial_type":"html-keyboard-response","trial_index":21,"time_elapsed":410873,"internal_node_id":"0.0-17.0-1.1"},{"rt":null,"stimulus":"<div style=\"background-color:#ff7157\"><h1 style=\"background-color:MediumSeaGreen\">You earned 50 coins</h1><h1 h1 style=\"background-color:Tomato\">but you have recieved a fine of 250 coins</h1><h1 style=\"background-color:Tomato\">Remember, you need to keep going until you have 3000 coins!</h1><img id=\"box\" src=\"img/prizes/250.png\"></img><img id=\"box\" src=\"img/sad/redopenboxsadthumb.png\"></img></div>","key_press":null,"trial_type":"html-keyboard-response","trial_index":21,"time_elapsed":413874,"internal_node_id":"0.0-17.0-1.1"},{"rt":3165.3550000628456,"stimulus":"<p>Choose a box,</p>","button_pressed":3,"trial_type":"html-button-response","trial_index":22,"time_elapsed":417041,"internal_node_id":"0.0-17.0-0.2"},{"reward":50,"trial_type":"html-keyboard-response","trial_index":23,"time_elapsed":417041,"internal_node_id":"0.0-17.0-1.2"},{"penalty":250,"trial_type":"html-keyboard-response","trial_index":23,"time_elapsed":417041,"internal_node_id":"0.0-17.0-1.2"},{"fined":false,"trial_type":"html-keyboard-response","trial_index":23,"time_elapsed":417041,"internal_node_id":"0.0-17.0-1.2"},{"rt":null,"stimulus":"<div style=\"background-color:#6dce98\"><h1 style=\"background-color:MediumSeaGreen\" >You earned 50 coins! Well done!</h1><div style=\"background-color:#6dce98\"><h1 style=\"background-color:MediumSeaGreen\" >Only 1550 left to go!</h1><img id=\"box\" src=\"img/prizes/coins.png\"></img><img id=\"box\" src=\"img/empty/redopenbox.png\"></img></div>","key_press":null,"trial_type":"html-keyboard-response","trial_index":23,"time_elapsed":420050,"internal_node_id":"0.0-17.0-1.2"},{"view_history":"[{\"page_index\":0,\"viewing_time\":10918.7099999981}]","rt":10918.850000016391,"trial_type":"instructions","trial_index":24,"time_elapsed":430969,"internal_node_id":"0.0-18.0"},{"rt":1358.8999999919906,"stimulus":"<p>Choose a box,</p>","button_pressed":0,"trial_type":"html-button-response","trial_index":25,"time_elapsed":432329,"internal_node_id":"0.0-19.0-0.0"},{"reward":100,"trial_type":"html-keyboard-response","trial_index":26,"time_elapsed":432329,"internal_node_id":"0.0-19.0-1.0"},{"penalty":250,"trial_type":"html-keyboard-response","trial_index":26,"time_elapsed":432329,"internal_node_id":"0.0-19.0-1.0"},{"fined":false,"trial_type":"html-keyboard-response","trial_index":26,"time_elapsed":432329,"internal_node_id":"0.0-19.0-1.0"},{"rt":null,"stimulus":"<div style=\"background-color:#6dce98\"><h1 style=\"background-color:MediumSeaGreen\" >You earned 100 coins! Well done!</h1><div style=\"background-color:#6dce98\"><h1 style=\"background-color:MediumSeaGreen\" >Only 1400 left to go!</h1><img id=\"box\" src=\"img/prizes/coins2.png\"></img><img id=\"box\" src=\"img/empty/blueopenbox.png\"></img></div>","key_press":null,"trial_type":"html-keyboard-response","trial_index":26,"time_elapsed":435329,"internal_node_id":"0.0-19.0-1.0"},{"rt":2998.4000000404194,"stimulus":"<p>Choose a box,</p>","button_pressed":3,"trial_type":"html-button-response","trial_index":27,"time_elapsed":438329,"internal_node_id":"0.0-19.1-0.1"},{"reward":50,"trial_type":"html-keyboard-response","trial_index":28,"time_elapsed":438329,"internal_node_id":"0.0-19.1-1.1"},{"penalty":250,"trial_type":"html-keyboard-response","trial_index":28,"time_elapsed":438329,"internal_node_id":"0.0-19.1-1.1"},{"fined":false,"trial_type":"html-keyboard-response","trial_index":28,"time_elapsed":438329,"internal_node_id":"0.0-19.1-1.1"},{"rt":null,"stimulus":"<div style=\"background-color:#6dce98\"><h1 style=\"background-color:MediumSeaGreen\" >You earned 50 coins! Well done!</h1><div style=\"background-color:#6dce98\"><h1 style=\"background-color:MediumSeaGreen\" >Only 1350 left to go!</h1><img id=\"box\" src=\"img/prizes/coins.png\"></img><img id=\"box\" src=\"img/empty/redopenbox.png\"></img></div>","key_press":null,"trial_type":"html-keyboard-response","trial_index":28,"time_elapsed":441342,"internal_node_id":"0.0-19.1-1.1"},{"rt":3161.8950000265613,"stimulus":"<p>Choose a box,</p>","button_pressed":3,"trial_type":"html-button-response","trial_index":29,"time_elapsed":444505,"internal_node_id":"0.0-19.2-0.2"},{"reward":50,"trial_type":"html-keyboard-response","trial_index":30,"time_elapsed":444505,"internal_node_id":"0.0-19.2-1.2"},{"penalty":250,"trial_type":"html-keyboard-response","trial_index":30,"time_elapsed":444505,"internal_node_id":"0.0-19.2-1.2"},{"fined":false,"trial_type":"html-keyboard-response","trial_index":30,"time_elapsed":444505,"internal_node_id":"0.0-19.2-1.2"},{"rt":null,"stimulus":"<div style=\"background-color:#6dce98\"><h1 style=\"background-color:MediumSeaGreen\" >You earned 50 coins! Well done!</h1><div style=\"background-color:#6dce98\"><h1 style=\"background-color:MediumSeaGreen\" >Only 1300 left to go!</h1><img id=\"box\" src=\"img/prizes/coins.png\"></img><img id=\"box\" src=\"img/empty/redopenbox.png\"></img></div>","key_press":null,"trial_type":"html-keyboard-response","trial_index":30,"time_elapsed":447506,"internal_node_id":"0.0-19.2-1.2"},{"rt":1061.5550000220537,"stimulus":"<p>Choose a box,</p>","button_pressed":2,"trial_type":"html-button-response","trial_index":31,"time_elapsed":448569,"internal_node_id":"0.0-19.3-0.3"},{"reward":50,"trial_type":"html-keyboard-response","trial_index":32,"time_elapsed":448569,"internal_node_id":"0.0-19.3-1.3"},{"penalty":50,"trial_type":"html-keyboard-response","trial_index":32,"time_elapsed":448569,"internal_node_id":"0.0-19.3-1.3"},{"fined":false,"trial_type":"html-keyboard-response","trial_index":32,"time_elapsed":448569,"internal_node_id":"0.0-19.3-1.3"},{"rt":null,"stimulus":"<div style=\"background-color:#6dce98\"><h1 style=\"background-color:MediumSeaGreen\" >You earned 50 coins! Well done!</h1><div style=\"background-color:#6dce98\"><h1 style=\"background-color:MediumSeaGreen\" >Only 1250 left to go!</h1><img id=\"box\" src=\"img/prizes/coins.png\"></img><img id=\"box\" src=\"img/empty/purpleopenbox.png\"></img></div>","key_press":null,"trial_type":"html-keyboard-response","trial_index":32,"time_elapsed":451570,"internal_node_id":"0.0-19.3-1.3"},{"rt":1317.8149999585003,"stimulus":"<p>Choose a box,</p>","button_pressed":1,"trial_type":"html-button-response","trial_index":33,"time_elapsed":452889,"internal_node_id":"0.0-19.4-0.4"},{"reward":100,"trial_type":"html-keyboard-response","trial_index":34,"time_elapsed":452889,"internal_node_id":"0.0-19.4-1.4"},{"penalty":1250,"trial_type":"html-keyboard-response","trial_index":34,"time_elapsed":452889,"internal_node_id":"0.0-19.4-1.4"},{"fined":false,"trial_type":"html-keyboard-response","trial_index":34,"time_elapsed":452889,"internal_node_id":"0.0-19.4-1.4"},{"rt":null,"stimulus":"<div style=\"background-color:#6dce98\"><h1 style=\"background-color:MediumSeaGreen\" >You earned 100 coins! Well done!</h1><div style=\"background-color:#6dce98\"><h1 style=\"background-color:MediumSeaGreen\" >Only 1150 left to go!</h1><img id=\"box\" src=\"img/prizes/coins2.png\"></img><img id=\"box\" src=\"img/empty/greenopenbox.png\"></img></div>","key_press":null,"trial_type":"html-keyboard-response","trial_index":34,"time_elapsed":455890,"internal_node_id":"0.0-19.4-1.4"},{"rt":869.7649999521673,"stimulus":"<p>Choose a box,</p>","button_pressed":1,"trial_type":"html-button-response","trial_index":35,"time_elapsed":456760,"internal_node_id":"0.0-19.5-0.5"},{"reward":100,"trial_type":"html-keyboard-response","trial_index":36,"time_elapsed":456761,"internal_node_id":"0.0-19.5-1.5"},{"penalty":1250,"trial_type":"html-keyboard-response","trial_index":36,"time_elapsed":456761,"internal_node_id":"0.0-19.5-1.5"},{"fined":false,"trial_type":"html-keyboard-response","trial_index":36,"time_elapsed":456761,"internal_node_id":"0.0-19.5-1.5"},{"rt":null,"stimulus":"<div style=\"background-color:#6dce98\"><h1 style=\"background-color:MediumSeaGreen\" >You earned 100 coins! Well done!</h1><div style=\"background-color:#6dce98\"><h1 style=\"background-color:MediumSeaGreen\" >Only 1050 left to go!</h1><img id=\"box\" src=\"img/prizes/coins2.png\"></img><img id=\"box\" src=\"img/empty/greenopenbox.png\"></img></div>","key_press":null,"trial_type":"html-keyboard-response","trial_index":36,"time_elapsed":459773,"internal_node_id":"0.0-19.5-1.5"},{"rt":570.3849999699742,"stimulus":"<p>Choose a box,</p>","button_pressed":3,"trial_type":"html-button-response","trial_index":37,"time_elapsed":460345,"internal_node_id":"0.0-19.6-0.6"},{"reward":50,"trial_type":"html-keyboard-response","trial_index":38,"time_elapsed":460345,"internal_node_id":"0.0-19.6-1.6"},{"penalty":250,"trial_type":"html-keyboard-response","trial_index":38,"time_elapsed":460345,"internal_node_id":"0.0-19.6-1.6"},{"fined":false,"trial_type":"html-keyboard-response","trial_index":38,"time_elapsed":460345,"internal_node_id":"0.0-19.6-1.6"},{"rt":null,"stimulus":"<div style=\"background-color:#6dce98\"><h1 style=\"background-color:MediumSeaGreen\" >You earned 50 coins! Well done!</h1><div style=\"background-color:#6dce98\"><h1 style=\"background-color:MediumSeaGreen\" >Only 1000 left to go!</h1><img id=\"box\" src=\"img/prizes/coins.png\"></img><img id=\"box\" src=\"img/empty/redopenbox.png\"></img></div>","key_press":null,"trial_type":"html-keyboard-response","trial_index":38,"time_elapsed":463346,"internal_node_id":"0.0-19.6-1.6"},{"rt":782.0199999259785,"stimulus":"<p>Choose a box,</p>","button_pressed":0,"trial_type":"html-button-response","trial_index":39,"time_elapsed":464128,"internal_node_id":"0.0-19.7-0.7"},{"reward":100,"trial_type":"html-keyboard-response","trial_index":40,"time_elapsed":464129,"internal_node_id":"0.0-19.7-1.7"},{"penalty":250,"trial_type":"html-keyboard-response","trial_index":40,"time_elapsed":464129,"internal_node_id":"0.0-19.7-1.7"},{"fined":true,"trial_type":"html-keyboard-response","trial_index":40,"time_elapsed":464129,"internal_node_id":"0.0-19.7-1.7"},{"rt":null,"stimulus":"<div style=\"background-color:#ff7157\"><h1 style=\"background-color:MediumSeaGreen\">You earned 100 coins</h1><h1 h1 style=\"background-color:Tomato\">but you have recieved a fine of 250 coins</h1><h1 style=\"background-color:Tomato\">Remember, you need to keep going until you have 3000 coins!</h1><img id=\"box\" src=\"img/prizes/250.png\"></img><img id=\"box\" src=\"img/sad/blueopenboxsadthumb.png\"></img></div>","key_press":null,"trial_type":"html-keyboard-response","trial_index":40,"time_elapsed":467131,"internal_node_id":"0.0-19.7-1.7"},{"rt":772.9300000937656,"stimulus":"<p>Choose a box,</p>","button_pressed":0,"trial_type":"html-button-response","trial_index":41,"time_elapsed":467904,"internal_node_id":"0.0-19.8-0.8"},{"reward":100,"trial_type":"html-keyboard-response","trial_index":42,"time_elapsed":467905,"internal_node_id":"0.0-19.8-1.8"},{"penalty":250,"trial_type":"html-keyboard-response","trial_index":42,"time_elapsed":467905,"internal_node_id":"0.0-19.8-1.8"},{"fined":false,"trial_type":"html-keyboard-response","trial_index":42,"time_elapsed":467905,"internal_node_id":"0.0-19.8-1.8"},{"rt":null,"stimulus":"<div style=\"background-color:#6dce98\"><h1 style=\"background-color:MediumSeaGreen\" >You earned 100 coins! Well done!</h1><div style=\"background-color:#6dce98\"><h1 style=\"background-color:MediumSeaGreen\" >Only 1050 left to go!</h1><img id=\"box\" src=\"img/prizes/coins2.png\"></img><img id=\"box\" src=\"img/empty/blueopenbox.png\"></img></div>","key_press":null,"trial_type":"html-keyboard-response","trial_index":42,"time_elapsed":470910,"internal_node_id":"0.0-19.8-1.8"},{"rt":1153.5550000844523,"stimulus":"<p>Choose a box,</p>","button_pressed":1,"trial_type":"html-button-response","trial_index":43,"time_elapsed":472064,"internal_node_id":"0.0-19.9-0.9"},{"reward":100,"trial_type":"html-keyboard-response","trial_index":44,"time_elapsed":472065,"internal_node_id":"0.0-19.9-1.9"},{"penalty":1250,"trial_type":"html-keyboard-response","trial_index":44,"time_elapsed":472065,"internal_node_id":"0.0-19.9-1.9"},{"fined":false,"trial_type":"html-keyboard-response","trial_index":44,"time_elapsed":472065,"internal_node_id":"0.0-19.9-1.9"},{"rt":null,"stimulus":"<div style=\"background-color:#6dce98\"><h1 style=\"background-color:MediumSeaGreen\" >You earned 100 coins! Well done!</h1><div style=\"background-color:#6dce98\"><h1 style=\"background-color:MediumSeaGreen\" >Only 950 left to go!</h1><img id=\"box\" src=\"img/prizes/coins2.png\"></img><img id=\"box\" src=\"img/empty/greenopenbox.png\"></img></div>","key_press":null,"trial_type":"html-keyboard-response","trial_index":44,"time_elapsed":475066,"internal_node_id":"0.0-19.9-1.9"},{"rt":1645.8749999292195,"stimulus":"<p>Choose a box,</p>","button_pressed":1,"trial_type":"html-button-response","trial_index":45,"time_elapsed":476713,"internal_node_id":"0.0-19.10-0.10"},{"reward":100,"trial_type":"html-keyboard-response","trial_index":46,"time_elapsed":476713,"internal_node_id":"0.0-19.10-1.10"},{"penalty":1250,"trial_type":"html-keyboard-response","trial_index":46,"time_elapsed":476713,"internal_node_id":"0.0-19.10-1.10"},{"fined":false,"trial_type":"html-keyboard-response","trial_index":46,"time_elapsed":476713,"internal_node_id":"0.0-19.10-1.10"},{"rt":null,"stimulus":"<div style=\"background-color:#6dce98\"><h1 style=\"background-color:MediumSeaGreen\" >You earned 100 coins! Well done!</h1><div style=\"background-color:#6dce98\"><h1 style=\"background-color:MediumSeaGreen\" >Only 850 left to go!</h1><img id=\"box\" src=\"img/prizes/coins2.png\"></img><img id=\"box\" src=\"img/empty/greenopenbox.png\"></img></div>","key_press":null,"trial_type":"html-keyboard-response","trial_index":46,"time_elapsed":479714,"internal_node_id":"0.0-19.10-1.10"},{"rt":1725.9000000776723,"stimulus":"<p>Choose a box,</p>","button_pressed":3,"trial_type":"html-button-response","trial_index":47,"time_elapsed":481441,"internal_node_id":"0.0-19.11-0.11"},{"reward":50,"trial_type":"html-keyboard-response","trial_index":48,"time_elapsed":481441,"internal_node_id":"0.0-19.11-1.11"},{"penalty":250,"trial_type":"html-keyboard-response","trial_index":48,"time_elapsed":481441,"internal_node_id":"0.0-19.11-1.11"},{"fined":true,"trial_type":"html-keyboard-response","trial_index":48,"time_elapsed":481441,"internal_node_id":"0.0-19.11-1.11"},{"rt":null,"stimulus":"<div style=\"background-color:#ff7157\"><h1 style=\"background-color:MediumSeaGreen\">You earned 50 coins</h1><h1 h1 style=\"background-color:Tomato\">but you have recieved a fine of 250 coins</h1><h1 style=\"background-color:Tomato\">Remember, you need to keep going until you have 3000 coins!</h1><img id=\"box\" src=\"img/prizes/250.png\"></img><img id=\"box\" src=\"img/sad/redopenboxsadthumb.png\"></img></div>","key_press":null,"trial_type":"html-keyboard-response","trial_index":48,"time_elapsed":484448,"internal_node_id":"0.0-19.11-1.11"},{"rt":1448.2999999308959,"stimulus":"<p>Choose a box,</p>","button_pressed":3,"trial_type":"html-button-response","trial_index":49,"time_elapsed":485897,"internal_node_id":"0.0-19.12-0.12"},{"reward":50,"trial_type":"html-keyboard-response","trial_index":50,"time_elapsed":485897,"internal_node_id":"0.0-19.12-1.12"},{"penalty":250,"trial_type":"html-keyboard-response","trial_index":50,"time_elapsed":485897,"internal_node_id":"0.0-19.12-1.12"},{"fined":false,"trial_type":"html-keyboard-response","trial_index":50,"time_elapsed":485897,"internal_node_id":"0.0-19.12-1.12"},{"rt":null,"stimulus":"<div style=\"background-color:#6dce98\"><h1 style=\"background-color:MediumSeaGreen\" >You earned 50 coins! Well done!</h1><div style=\"background-color:#6dce98\"><h1 style=\"background-color:MediumSeaGreen\" >Only 1000 left to go!</h1><img id=\"box\" src=\"img/prizes/coins.png\"></img><img id=\"box\" src=\"img/empty/redopenbox.png\"></img></div>","key_press":null,"trial_type":"html-keyboard-response","trial_index":50,"time_elapsed":488898,"internal_node_id":"0.0-19.12-1.12"},{"rt":573.7949999747798,"stimulus":"<p>Choose a box,</p>","button_pressed":3,"trial_type":"html-button-response","trial_index":51,"time_elapsed":489473,"internal_node_id":"0.0-19.13-0.13"},{"reward":50,"trial_type":"html-keyboard-response","trial_index":52,"time_elapsed":489473,"internal_node_id":"0.0-19.13-1.13"},{"penalty":250,"trial_type":"html-keyboard-response","trial_index":52,"time_elapsed":489473,"internal_node_id":"0.0-19.13-1.13"},{"fined":false,"trial_type":"html-keyboard-response","trial_index":52,"time_elapsed":489473,"internal_node_id":"0.0-19.13-1.13"},{"rt":null,"stimulus":"<div style=\"background-color:#6dce98\"><h1 style=\"background-color:MediumSeaGreen\" >You earned 50 coins! Well done!</h1><div style=\"background-color:#6dce98\"><h1 style=\"background-color:MediumSeaGreen\" >Only 950 left to go!</h1><img id=\"box\" src=\"img/prizes/coins.png\"></img><img id=\"box\" src=\"img/empty/redopenbox.png\"></img></div>","key_press":null,"trial_type":"html-keyboard-response","trial_index":52,"time_elapsed":492474,"internal_node_id":"0.0-19.13-1.13"},{"rt":574.5350000215694,"stimulus":"<p>Choose a box,</p>","button_pressed":3,"trial_type":"html-button-response","trial_index":53,"time_elapsed":493050,"internal_node_id":"0.0-19.14-0.14"},{"reward":50,"trial_type":"html-keyboard-response","trial_index":54,"time_elapsed":493050,"internal_node_id":"0.0-19.14-1.14"},{"penalty":250,"trial_type":"html-keyboard-response","trial_index":54,"time_elapsed":493050,"internal_node_id":"0.0-19.14-1.14"},{"fined":false,"trial_type":"html-keyboard-response","trial_index":54,"time_elapsed":493050,"internal_node_id":"0.0-19.14-1.14"},{"rt":null,"stimulus":"<div style=\"background-color:#6dce98\"><h1 style=\"background-color:MediumSeaGreen\" >You earned 50 coins! Well done!</h1><div style=\"background-color:#6dce98\"><h1 style=\"background-color:MediumSeaGreen\" >Only 900 left to go!</h1><img id=\"box\" src=\"img/prizes/coins.png\"></img><img id=\"box\" src=\"img/empty/redopenbox.png\"></img></div>","key_press":null,"trial_type":"html-keyboard-response","trial_index":54,"time_elapsed":496051,"internal_node_id":"0.0-19.14-1.14"},{"rt":765.1150000747293,"stimulus":"<p>Choose a box,</p>","button_pressed":2,"trial_type":"html-button-response","trial_index":55,"time_elapsed":496817,"internal_node_id":"0.0-19.15-0.15"},{"reward":50,"trial_type":"html-keyboard-response","trial_index":56,"time_elapsed":496817,"internal_node_id":"0.0-19.15-1.15"},{"penalty":50,"trial_type":"html-keyboard-response","trial_index":56,"time_elapsed":496817,"internal_node_id":"0.0-19.15-1.15"},{"fined":false,"trial_type":"html-keyboard-response","trial_index":56,"time_elapsed":496817,"internal_node_id":"0.0-19.15-1.15"},{"rt":null,"stimulus":"<div style=\"background-color:#6dce98\"><h1 style=\"background-color:MediumSeaGreen\" >You earned 50 coins! Well done!</h1><div style=\"background-color:#6dce98\"><h1 style=\"background-color:MediumSeaGreen\" >Only 850 left to go!</h1><img id=\"box\" src=\"img/prizes/coins.png\"></img><img id=\"box\" src=\"img/empty/purpleopenbox.png\"></img></div>","key_press":null,"trial_type":"html-keyboard-response","trial_index":56,"time_elapsed":499832,"internal_node_id":"0.0-19.15-1.15"},{"rt":1319.9749999912456,"stimulus":"<p>Choose a box,</p>","button_pressed":1,"trial_type":"html-button-response","trial_index":57,"time_elapsed":501153,"internal_node_id":"0.0-19.16-0.16"},{"reward":100,"trial_type":"html-keyboard-response","trial_index":58,"time_elapsed":501153,"internal_node_id":"0.0-19.16-1.16"},{"penalty":1250,"trial_type":"html-keyboard-response","trial_index":58,"time_elapsed":501153,"internal_node_id":"0.0-19.16-1.16"},{"fined":false,"trial_type":"html-keyboard-response","trial_index":58,"time_elapsed":501153,"internal_node_id":"0.0-19.16-1.16"},{"rt":null,"stimulus":"<div style=\"background-color:#6dce98\"><h1 style=\"background-color:MediumSeaGreen\" >You earned 100 coins! Well done!</h1><div style=\"background-color:#6dce98\"><h1 style=\"background-color:MediumSeaGreen\" >Only 750 left to go!</h1><img id=\"box\" src=\"img/prizes/coins2.png\"></img><img id=\"box\" src=\"img/empty/greenopenbox.png\"></img></div>","key_press":null,"trial_type":"html-keyboard-response","trial_index":58,"time_elapsed":504166,"internal_node_id":"0.0-19.16-1.16"},{"rt":777.3949999827892,"stimulus":"<p>Choose a box,</p>","button_pressed":1,"trial_type":"html-button-response","trial_index":59,"time_elapsed":504945,"internal_node_id":"0.0-19.17-0.17"},{"reward":100,"trial_type":"html-keyboard-response","trial_index":60,"time_elapsed":504945,"internal_node_id":"0.0-19.17-1.17"},{"penalty":1250,"trial_type":"html-keyboard-response","trial_index":60,"time_elapsed":504945,"internal_node_id":"0.0-19.17-1.17"},{"fined":false,"trial_type":"html-keyboard-response","trial_index":60,"time_elapsed":504945,"internal_node_id":"0.0-19.17-1.17"},{"rt":null,"stimulus":"<div style=\"background-color:#6dce98\"><h1 style=\"background-color:MediumSeaGreen\" >You earned 100 coins! Well done!</h1><div style=\"background-color:#6dce98\"><h1 style=\"background-color:MediumSeaGreen\" >Only 650 left to go!</h1><img id=\"box\" src=\"img/prizes/coins2.png\"></img><img id=\"box\" src=\"img/empty/greenopenbox.png\"></img></div>","key_press":null,"trial_type":"html-keyboard-response","trial_index":60,"time_elapsed":507956,"internal_node_id":"0.0-19.17-1.17"},{"rt":2515.8949999604374,"stimulus":"<p>Choose a box,</p>","button_pressed":0,"trial_type":"html-button-response","trial_index":61,"time_elapsed":510473,"internal_node_id":"0.0-19.18-0.18"},{"reward":100,"trial_type":"html-keyboard-response","trial_index":62,"time_elapsed":510473,"internal_node_id":"0.0-19.18-1.18"},{"penalty":250,"trial_type":"html-keyboard-response","trial_index":62,"time_elapsed":510473,"internal_node_id":"0.0-19.18-1.18"},{"fined":false,"trial_type":"html-keyboard-response","trial_index":62,"time_elapsed":510473,"internal_node_id":"0.0-19.18-1.18"},{"rt":null,"stimulus":"<div style=\"background-color:#6dce98\"><h1 style=\"background-color:MediumSeaGreen\" >You earned 100 coins! Well done!</h1><div style=\"background-color:#6dce98\"><h1 style=\"background-color:MediumSeaGreen\" >Only 550 left to go!</h1><img id=\"box\" src=\"img/prizes/coins2.png\"></img><img id=\"box\" src=\"img/empty/blueopenbox.png\"></img></div>","key_press":null,"trial_type":"html-keyboard-response","trial_index":62,"time_elapsed":513477,"internal_node_id":"0.0-19.18-1.18"},{"rt":994.660000083968,"stimulus":"<p>Choose a box,</p>","button_pressed":0,"trial_type":"html-button-response","trial_index":63,"time_elapsed":514473,"internal_node_id":"0.0-19.19-0.19"},{"reward":100,"trial_type":"html-keyboard-response","trial_index":64,"time_elapsed":514473,"internal_node_id":"0.0-19.19-1.19"},{"penalty":250,"trial_type":"html-keyboard-response","trial_index":64,"time_elapsed":514473,"internal_node_id":"0.0-19.19-1.19"},{"fined":false,"trial_type":"html-keyboard-response","trial_index":64,"time_elapsed":514473,"internal_node_id":"0.0-19.19-1.19"},{"rt":null,"stimulus":"<div style=\"background-color:#6dce98\"><h1 style=\"background-color:MediumSeaGreen\" >You earned 100 coins! Well done!</h1><div style=\"background-color:#6dce98\"><h1 style=\"background-color:MediumSeaGreen\" >Only 450 left to go!</h1><img id=\"box\" src=\"img/prizes/coins2.png\"></img><img id=\"box\" src=\"img/empty/blueopenbox.png\"></img></div>","key_press":null,"trial_type":"html-keyboard-response","trial_index":64,"time_elapsed":517480,"internal_node_id":"0.0-19.19-1.19"},{"rt":1280.3400000557303,"stimulus":"<p>Choose a box,</p>","button_pressed":2,"trial_type":"html-button-response","trial_index":65,"time_elapsed":518761,"internal_node_id":"0.0-19.20-0.20"},{"reward":50,"trial_type":"html-keyboard-response","trial_index":66,"time_elapsed":518761,"internal_node_id":"0.0-19.20-1.20"},{"penalty":50,"trial_type":"html-keyboard-response","trial_index":66,"time_elapsed":518761,"internal_node_id":"0.0-19.20-1.20"},{"fined":true,"trial_type":"html-keyboard-response","trial_index":66,"time_elapsed":518761,"internal_node_id":"0.0-19.20-1.20"},{"rt":null,"stimulus":"<div style=\"background-color:#ff7157\"><h1 style=\"background-color:MediumSeaGreen\">You earned 50 coins</h1><h1 h1 style=\"background-color:Tomato\">but you have recieved a fine of 50 coins</h1><h1 style=\"background-color:Tomato\">Remember, you need to keep going until you have 3000 coins!</h1><img id=\"box\" src=\"img/prizes/50.png\"></img><img id=\"box\" src=\"img/sad/purpleopenboxsadthumb.png\"></img></div>","key_press":null,"trial_type":"html-keyboard-response","trial_index":66,"time_elapsed":521762,"internal_node_id":"0.0-19.20-1.20"},{"rt":789.6399999735877,"stimulus":"<p>Choose a box,</p>","button_pressed":1,"trial_type":"html-button-response","trial_index":67,"time_elapsed":522553,"internal_node_id":"0.0-19.21-0.21"},{"reward":100,"trial_type":"html-keyboard-response","trial_index":68,"time_elapsed":522554,"internal_node_id":"0.0-19.21-1.21"},{"penalty":1250,"trial_type":"html-keyboard-response","trial_index":68,"time_elapsed":522554,"internal_node_id":"0.0-19.21-1.21"},{"fined":false,"trial_type":"html-keyboard-response","trial_index":68,"time_elapsed":522554,"internal_node_id":"0.0-19.21-1.21"},{"rt":null,"stimulus":"<div style=\"background-color:#6dce98\"><h1 style=\"background-color:MediumSeaGreen\" >You earned 100 coins! Well done!</h1><div style=\"background-color:#6dce98\"><h1 style=\"background-color:MediumSeaGreen\" >Only 350 left to go!</h1><img id=\"box\" src=\"img/prizes/coins2.png\"></img><img id=\"box\" src=\"img/empty/greenopenbox.png\"></img></div>","key_press":null,"trial_type":"html-keyboard-response","trial_index":68,"time_elapsed":525564,"internal_node_id":"0.0-19.21-1.21"},{"rt":628.1399999279529,"stimulus":"<p>Choose a box,</p>","button_pressed":1,"trial_type":"html-button-response","trial_index":69,"time_elapsed":526193,"internal_node_id":"0.0-19.22-0.22"},{"reward":100,"trial_type":"html-keyboard-response","trial_index":70,"time_elapsed":526193,"internal_node_id":"0.0-19.22-1.22"},{"penalty":1250,"trial_type":"html-keyboard-response","trial_index":70,"time_elapsed":526193,"internal_node_id":"0.0-19.22-1.22"},{"fined":false,"trial_type":"html-keyboard-response","trial_index":70,"time_elapsed":526193,"internal_node_id":"0.0-19.22-1.22"},{"rt":null,"stimulus":"<div style=\"background-color:#6dce98\"><h1 style=\"background-color:MediumSeaGreen\" >You earned 100 coins! Well done!</h1><div style=\"background-color:#6dce98\"><h1 style=\"background-color:MediumSeaGreen\" >Only 250 left to go!</h1><img id=\"box\" src=\"img/prizes/coins2.png\"></img><img id=\"box\" src=\"img/empty/greenopenbox.png\"></img></div>","key_press":null,"trial_type":"html-keyboard-response","trial_index":70,"time_elapsed":529196,"internal_node_id":"0.0-19.22-1.22"},{"rt":780.460000038147,"stimulus":"<p>Choose a box,</p>","button_pressed":3,"trial_type":"html-button-response","trial_index":71,"time_elapsed":529977,"internal_node_id":"0.0-19.23-0.23"},{"reward":50,"trial_type":"html-keyboard-response","trial_index":72,"time_elapsed":529977,"internal_node_id":"0.0-19.23-1.23"},{"penalty":250,"trial_type":"html-keyboard-response","trial_index":72,"time_elapsed":529977,"internal_node_id":"0.0-19.23-1.23"},{"fined":true,"trial_type":"html-keyboard-response","trial_index":72,"time_elapsed":529977,"internal_node_id":"0.0-19.23-1.23"},{"rt":null,"stimulus":"<div style=\"background-color:#ff7157\"><h1 style=\"background-color:MediumSeaGreen\">You earned 50 coins</h1><h1 h1 style=\"background-color:Tomato\">but you have recieved a fine of 250 coins</h1><h1 style=\"background-color:Tomato\">Remember, you need to keep going until you have 3000 coins!</h1><img id=\"box\" src=\"img/prizes/250.png\"></img><img id=\"box\" src=\"img/sad/redopenboxsadthumb.png\"></img></div>","key_press":null,"trial_type":"html-keyboard-response","trial_index":72,"time_elapsed":532978,"internal_node_id":"0.0-19.23-1.23"},{"rt":614.4400000339374,"stimulus":"<p>Choose a box,</p>","button_pressed":0,"trial_type":"html-button-response","trial_index":73,"time_elapsed":533593,"internal_node_id":"0.0-19.24-0.24"},{"reward":100,"trial_type":"html-keyboard-response","trial_index":74,"time_elapsed":533593,"internal_node_id":"0.0-19.24-1.24"},{"penalty":250,"trial_type":"html-keyboard-response","trial_index":74,"time_elapsed":533593,"internal_node_id":"0.0-19.24-1.24"},{"fined":true,"trial_type":"html-keyboard-response","trial_index":74,"time_elapsed":533593,"internal_node_id":"0.0-19.24-1.24"},{"rt":null,"stimulus":"<div style=\"background-color:#ff7157\"><h1 style=\"background-color:MediumSeaGreen\">You earned 100 coins</h1><h1 h1 style=\"background-color:Tomato\">but you have recieved a fine of 250 coins</h1><h1 style=\"background-color:Tomato\">Remember, you need to keep going until you have 3000 coins!</h1><img id=\"box\" src=\"img/prizes/250.png\"></img><img id=\"box\" src=\"img/sad/blueopenboxsadthumb.png\"></img></div>","key_press":null,"trial_type":"html-keyboard-response","trial_index":74,"time_elapsed":536594,"internal_node_id":"0.0-19.24-1.24"},{"rt":574.1100000450388,"stimulus":"<p>Choose a box,</p>","button_pressed":1,"trial_type":"html-button-response","trial_index":75,"time_elapsed":537169,"internal_node_id":"0.0-19.25-0.25"},{"reward":100,"trial_type":"html-keyboard-response","trial_index":76,"time_elapsed":537169,"internal_node_id":"0.0-19.25-1.25"},{"penalty":1250,"trial_type":"html-keyboard-response","trial_index":76,"time_elapsed":537169,"internal_node_id":"0.0-19.25-1.25"},{"fined":true,"trial_type":"html-keyboard-response","trial_index":76,"time_elapsed":537169,"internal_node_id":"0.0-19.25-1.25"},{"rt":null,"stimulus":"<div style=\"background-color:#ff7157\"><h1 style=\"background-color:MediumSeaGreen\">You earned 100 coins</h1><h1 h1 style=\"background-color:Tomato\">but you have recieved a fine of 1250 coins</h1><h1 style=\"background-color:Tomato\">Remember, you need to keep going until you have 3000 coins!</h1><img id=\"box\" src=\"img/prizes/1250.png\"></img><img id=\"box\" src=\"img/sad/greenopenboxsadthumb.png\"></img></div>","key_press":null,"trial_type":"html-keyboard-response","trial_index":76,"time_elapsed":540170,"internal_node_id":"0.0-19.25-1.25"},{"rt":2750.2399999648333,"stimulus":"<p>Choose a box,</p>","button_pressed":2,"trial_type":"html-button-response","trial_index":77,"time_elapsed":542921,"internal_node_id":"0.0-19.26-0.26"},{"reward":50,"trial_type":"html-keyboard-response","trial_index":78,"time_elapsed":542922,"internal_node_id":"0.0-19.26-1.26"},{"penalty":50,"trial_type":"html-keyboard-response","trial_index":78,"time_elapsed":542922,"internal_node_id":"0.0-19.26-1.26"},{"fined":true,"trial_type":"html-keyboard-response","trial_index":78,"time_elapsed":542922,"internal_node_id":"0.0-19.26-1.26"},{"rt":null,"stimulus":"<div style=\"background-color:#ff7157\"><h1 style=\"background-color:MediumSeaGreen\">You earned 50 coins</h1><h1 h1 style=\"background-color:Tomato\">but you have recieved a fine of 50 coins</h1><h1 style=\"background-color:Tomato\">Remember, you need to keep going until you have 3000 coins!</h1><img id=\"box\" src=\"img/prizes/50.png\"></img><img id=\"box\" src=\"img/sad/purpleopenboxsadthumb.png\"></img></div>","key_press":null,"trial_type":"html-keyboard-response","trial_index":78,"time_elapsed":545923,"internal_node_id":"0.0-19.26-1.26"},{"rt":868.9249999588355,"stimulus":"<p>Choose a box,</p>","button_pressed":3,"trial_type":"html-button-response","trial_index":79,"time_elapsed":546793,"internal_node_id":"0.0-19.27-0.27"},{"reward":50,"trial_type":"html-keyboard-response","trial_index":80,"time_elapsed":546793,"internal_node_id":"0.0-19.27-1.27"},{"penalty":250,"trial_type":"html-keyboard-response","trial_index":80,"time_elapsed":546793,"internal_node_id":"0.0-19.27-1.27"},{"fined":false,"trial_type":"html-keyboard-response","trial_index":80,"time_elapsed":546793,"internal_node_id":"0.0-19.27-1.27"},{"rt":null,"stimulus":"<div style=\"background-color:#6dce98\"><h1 style=\"background-color:MediumSeaGreen\" >You earned 50 coins! Well done!</h1><div style=\"background-color:#6dce98\"><h1 style=\"background-color:MediumSeaGreen\" >Only 1700 left to go!</h1><img id=\"box\" src=\"img/prizes/coins.png\"></img><img id=\"box\" src=\"img/empty/redopenbox.png\"></img></div>","key_press":null,"trial_type":"html-keyboard-response","trial_index":80,"time_elapsed":549794,"internal_node_id":"0.0-19.27-1.27"},{"rt":2950.3050000639632,"stimulus":"<p>Choose a box,</p>","button_pressed":1,"trial_type":"html-button-response","trial_index":81,"time_elapsed":552745,"internal_node_id":"0.0-19.28-0.28"},{"reward":100,"trial_type":"html-keyboard-response","trial_index":82,"time_elapsed":552745,"internal_node_id":"0.0-19.28-1.28"},{"penalty":1250,"trial_type":"html-keyboard-response","trial_index":82,"time_elapsed":552745,"internal_node_id":"0.0-19.28-1.28"},{"fined":false,"trial_type":"html-keyboard-response","trial_index":82,"time_elapsed":552745,"internal_node_id":"0.0-19.28-1.28"},{"rt":null,"stimulus":"<div style=\"background-color:#6dce98\"><h1 style=\"background-color:MediumSeaGreen\" >You earned 100 coins! Well done!</h1><div style=\"background-color:#6dce98\"><h1 style=\"background-color:MediumSeaGreen\" >Only 1600 left to go!</h1><img id=\"box\" src=\"img/prizes/coins2.png\"></img><img id=\"box\" src=\"img/empty/greenopenbox.png\"></img></div>","key_press":null,"trial_type":"html-keyboard-response","trial_index":82,"time_elapsed":555746,"internal_node_id":"0.0-19.28-1.28"},{"rt":710.0450000725687,"stimulus":"<p>Choose a box,</p>","button_pressed":0,"trial_type":"html-button-response","trial_index":83,"time_elapsed":556457,"internal_node_id":"0.0-19.29-0.29"},{"reward":100,"trial_type":"html-keyboard-response","trial_index":84,"time_elapsed":556457,"internal_node_id":"0.0-19.29-1.29"},{"penalty":250,"trial_type":"html-keyboard-response","trial_index":84,"time_elapsed":556457,"internal_node_id":"0.0-19.29-1.29"},{"fined":true,"trial_type":"html-keyboard-response","trial_index":84,"time_elapsed":556457,"internal_node_id":"0.0-19.29-1.29"},{"rt":null,"stimulus":"<div style=\"background-color:#ff7157\"><h1 style=\"background-color:MediumSeaGreen\">You earned 100 coins</h1><h1 h1 style=\"background-color:Tomato\">but you have recieved a fine of 250 coins</h1><h1 style=\"background-color:Tomato\">Remember, you need to keep going until you have 3000 coins!</h1><img id=\"box\" src=\"img/prizes/250.png\"></img><img id=\"box\" src=\"img/sad/blueopenboxsadthumb.png\"></img></div>","key_press":null,"trial_type":"html-keyboard-response","trial_index":84,"time_elapsed":559458,"internal_node_id":"0.0-19.29-1.29"},{"rt":2805.864999885671,"stimulus":"<p>Choose a box,</p>","button_pressed":2,"trial_type":"html-button-response","trial_index":85,"time_elapsed":562265,"internal_node_id":"0.0-19.30-0.30"},{"reward":50,"trial_type":"html-keyboard-response","trial_index":86,"time_elapsed":562265,"internal_node_id":"0.0-19.30-1.30"},{"penalty":50,"trial_type":"html-keyboard-response","trial_index":86,"time_elapsed":562265,"internal_node_id":"0.0-19.30-1.30"},{"fined":true,"trial_type":"html-keyboard-response","trial_index":86,"time_elapsed":562265,"internal_node_id":"0.0-19.30-1.30"},{"rt":null,"stimulus":"<div style=\"background-color:#ff7157\"><h1 style=\"background-color:MediumSeaGreen\">You earned 50 coins</h1><h1 h1 style=\"background-color:Tomato\">but you have recieved a fine of 50 coins</h1><h1 style=\"background-color:Tomato\">Remember, you need to keep going until you have 3000 coins!</h1><img id=\"box\" src=\"img/prizes/50.png\"></img><img id=\"box\" src=\"img/sad/purpleopenboxsadthumb.png\"></img></div>","key_press":null,"trial_type":"html-keyboard-response","trial_index":86,"time_elapsed":565276,"internal_node_id":"0.0-19.30-1.30"},{"rt":763.3700000587851,"stimulus":"<p>Choose a box,</p>","button_pressed":3,"trial_type":"html-button-response","trial_index":87,"time_elapsed":566041,"internal_node_id":"0.0-19.31-0.31"},{"reward":50,"trial_type":"html-keyboard-response","trial_index":88,"time_elapsed":566041,"internal_node_id":"0.0-19.31-1.31"},{"penalty":250,"trial_type":"html-keyboard-response","trial_index":88,"time_elapsed":566041,"internal_node_id":"0.0-19.31-1.31"},{"fined":true,"trial_type":"html-keyboard-response","trial_index":88,"time_elapsed":566041,"internal_node_id":"0.0-19.31-1.31"},{"rt":null,"stimulus":"<div style=\"background-color:#ff7157\"><h1 style=\"background-color:MediumSeaGreen\">You earned 50 coins</h1><h1 h1 style=\"background-color:Tomato\">but you have recieved a fine of 250 coins</h1><h1 style=\"background-color:Tomato\">Remember, you need to keep going until you have 3000 coins!</h1><img id=\"box\" src=\"img/prizes/250.png\"></img><img id=\"box\" src=\"img/sad/redopenboxsadthumb.png\"></img></div>","key_press":null,"trial_type":"html-keyboard-response","trial_index":88,"time_elapsed":569042,"internal_node_id":"0.0-19.31-1.31"},{"rt":1278.1249999534339,"stimulus":"<p>Choose a box,</p>","button_pressed":2,"trial_type":"html-button-response","trial_index":89,"time_elapsed":570321,"internal_node_id":"0.0-19.32-0.32"},{"reward":50,"trial_type":"html-keyboard-response","trial_index":90,"time_elapsed":570321,"internal_node_id":"0.0-19.32-1.32"},{"penalty":50,"trial_type":"html-keyboard-response","trial_index":90,"time_elapsed":570321,"internal_node_id":"0.0-19.32-1.32"},{"fined":true,"trial_type":"html-keyboard-response","trial_index":90,"time_elapsed":570321,"internal_node_id":"0.0-19.32-1.32"},{"rt":null,"stimulus":"<div style=\"background-color:#ff7157\"><h1 style=\"background-color:MediumSeaGreen\">You earned 50 coins</h1><h1 h1 style=\"background-color:Tomato\">but you have recieved a fine of 50 coins</h1><h1 style=\"background-color:Tomato\">Remember, you need to keep going until you have 3000 coins!</h1><img id=\"box\" src=\"img/prizes/50.png\"></img><img id=\"box\" src=\"img/sad/purpleopenboxsadthumb.png\"></img></div>","key_press":null,"trial_type":"html-keyboard-response","trial_index":90,"time_elapsed":573322,"internal_node_id":"0.0-19.32-1.32"},{"rt":462.06499997060746,"stimulus":"<p>Choose a box,</p>","button_pressed":2,"trial_type":"html-button-response","trial_index":91,"time_elapsed":573785,"internal_node_id":"0.0-19.33-0.33"},{"reward":50,"trial_type":"html-keyboard-response","trial_index":92,"time_elapsed":573785,"internal_node_id":"0.0-19.33-1.33"},{"penalty":50,"trial_type":"html-keyboard-response","trial_index":92,"time_elapsed":573785,"internal_node_id":"0.0-19.33-1.33"},{"fined":true,"trial_type":"html-keyboard-response","trial_index":92,"time_elapsed":573785,"internal_node_id":"0.0-19.33-1.33"},{"rt":null,"stimulus":"<div style=\"background-color:#ff7157\"><h1 style=\"background-color:MediumSeaGreen\">You earned 50 coins</h1><h1 h1 style=\"background-color:Tomato\">but you have recieved a fine of 50 coins</h1><h1 style=\"background-color:Tomato\">Remember, you need to keep going until you have 3000 coins!</h1><img id=\"box\" src=\"img/prizes/50.png\"></img><img id=\"box\" src=\"img/sad/purpleopenboxsadthumb.png\"></img></div>","key_press":null,"trial_type":"html-keyboard-response","trial_index":92,"time_elapsed":576795,"internal_node_id":"0.0-19.33-1.33"},{"rt":916.6249999543652,"stimulus":"<p>Choose a box,</p>","button_pressed":1,"trial_type":"html-button-response","trial_index":93,"time_elapsed":577713,"internal_node_id":"0.0-19.34-0.34"},{"reward":100,"trial_type":"html-keyboard-response","trial_index":94,"time_elapsed":577713,"internal_node_id":"0.0-19.34-1.34"},{"penalty":1250,"trial_type":"html-keyboard-response","trial_index":94,"time_elapsed":577713,"internal_node_id":"0.0-19.34-1.34"},{"fined":false,"trial_type":"html-keyboard-response","trial_index":94,"time_elapsed":577713,"internal_node_id":"0.0-19.34-1.34"},{"rt":null,"stimulus":"<div style=\"background-color:#6dce98\"><h1 style=\"background-color:MediumSeaGreen\" >You earned 100 coins! Well done!</h1><div style=\"background-color:#6dce98\"><h1 style=\"background-color:MediumSeaGreen\" >Only 1850 left to go!</h1><img id=\"box\" src=\"img/prizes/coins2.png\"></img><img id=\"box\" src=\"img/empty/greenopenbox.png\"></img></div>","key_press":null,"trial_type":"html-keyboard-response","trial_index":94,"time_elapsed":580722,"internal_node_id":"0.0-19.34-1.34"},{"rt":606.4350000815466,"stimulus":"<p>Choose a box,</p>","button_pressed":1,"trial_type":"html-button-response","trial_index":95,"time_elapsed":581330,"internal_node_id":"0.0-19.35-0.35"},{"reward":100,"trial_type":"html-keyboard-response","trial_index":96,"time_elapsed":581330,"internal_node_id":"0.0-19.35-1.35"},{"penalty":1250,"trial_type":"html-keyboard-response","trial_index":96,"time_elapsed":581330,"internal_node_id":"0.0-19.35-1.35"},{"fined":false,"trial_type":"html-keyboard-response","trial_index":96,"time_elapsed":581330,"internal_node_id":"0.0-19.35-1.35"},{"rt":null,"stimulus":"<div style=\"background-color:#6dce98\"><h1 style=\"background-color:MediumSeaGreen\" >You earned 100 coins! Well done!</h1><div style=\"background-color:#6dce98\"><h1 style=\"background-color:MediumSeaGreen\" >Only 1750 left to go!</h1><img id=\"box\" src=\"img/prizes/coins2.png\"></img><img id=\"box\" src=\"img/empty/greenopenbox.png\"></img></div>","key_press":null,"trial_type":"html-keyboard-response","trial_index":96,"time_elapsed":584334,"internal_node_id":"0.0-19.35-1.35"},{"rt":1322.0750000327826,"stimulus":"<p>Choose a box,</p>","button_pressed":1,"trial_type":"html-button-response","trial_index":97,"time_elapsed":585657,"internal_node_id":"0.0-19.36-0.36"},{"reward":100,"trial_type":"html-keyboard-response","trial_index":98,"time_elapsed":585657,"internal_node_id":"0.0-19.36-1.36"},{"penalty":1250,"trial_type":"html-keyboard-response","trial_index":98,"time_elapsed":585657,"internal_node_id":"0.0-19.36-1.36"},{"fined":false,"trial_type":"html-keyboard-response","trial_index":98,"time_elapsed":585657,"internal_node_id":"0.0-19.36-1.36"},{"rt":null,"stimulus":"<div style=\"background-color:#6dce98\"><h1 style=\"background-color:MediumSeaGreen\" >You earned 100 coins! Well done!</h1><div style=\"background-color:#6dce98\"><h1 style=\"background-color:MediumSeaGreen\" >Only 1650 left to go!</h1><img id=\"box\" src=\"img/prizes/coins2.png\"></img><img id=\"box\" src=\"img/empty/greenopenbox.png\"></img></div>","key_press":null,"trial_type":"html-keyboard-response","trial_index":98,"time_elapsed":588659,"internal_node_id":"0.0-19.36-1.36"},{"rt":1476.219999953173,"stimulus":"<p>Choose a box,</p>","button_pressed":0,"trial_type":"html-button-response","trial_index":99,"time_elapsed":590136,"internal_node_id":"0.0-19.37-0.37"},{"reward":100,"trial_type":"html-keyboard-response","trial_index":100,"time_elapsed":590137,"internal_node_id":"0.0-19.37-1.37"},{"penalty":250,"trial_type":"html-keyboard-response","trial_index":100,"time_elapsed":590137,"internal_node_id":"0.0-19.37-1.37"},{"fined":true,"trial_type":"html-keyboard-response","trial_index":100,"time_elapsed":590137,"internal_node_id":"0.0-19.37-1.37"},{"rt":null,"stimulus":"<div style=\"background-color:#ff7157\"><h1 style=\"background-color:MediumSeaGreen\">You earned 100 coins</h1><h1 h1 style=\"background-color:Tomato\">but you have recieved a fine of 250 coins</h1><h1 style=\"background-color:Tomato\">Remember, you need to keep going until you have 3000 coins!</h1><img id=\"box\" src=\"img/prizes/250.png\"></img><img id=\"box\" src=\"img/sad/blueopenboxsadthumb.png\"></img></div>","key_press":null,"trial_type":"html-keyboard-response","trial_index":100,"time_elapsed":593138,"internal_node_id":"0.0-19.37-1.37"},{"rt":990.1199999731034,"stimulus":"<p>Choose a box,</p>","button_pressed":1,"trial_type":"html-button-response","trial_index":101,"time_elapsed":594128,"internal_node_id":"0.0-19.38-0.38"},{"reward":100,"trial_type":"html-keyboard-response","trial_index":102,"time_elapsed":594129,"internal_node_id":"0.0-19.38-1.38"},{"penalty":1250,"trial_type":"html-keyboard-response","trial_index":102,"time_elapsed":594129,"internal_node_id":"0.0-19.38-1.38"},{"fined":true,"trial_type":"html-keyboard-response","trial_index":102,"time_elapsed":594129,"internal_node_id":"0.0-19.38-1.38"},{"rt":null,"stimulus":"<div style=\"background-color:#ff7157\"><h1 style=\"background-color:MediumSeaGreen\">You earned 100 coins</h1><h1 h1 style=\"background-color:Tomato\">but you have recieved a fine of 1250 coins</h1><h1 style=\"background-color:Tomato\">Remember, you need to keep going until you have 3000 coins!</h1><img id=\"box\" src=\"img/prizes/1250.png\"></img><img id=\"box\" src=\"img/sad/greenopenboxsadthumb.png\"></img></div>","key_press":null,"trial_type":"html-keyboard-response","trial_index":102,"time_elapsed":597129,"internal_node_id":"0.0-19.38-1.38"},{"rt":966.054999968037,"stimulus":"<p>Choose a box,</p>","button_pressed":3,"trial_type":"html-button-response","trial_index":103,"time_elapsed":598096,"internal_node_id":"0.0-19.39-0.39"},{"reward":50,"trial_type":"html-keyboard-response","trial_index":104,"time_elapsed":598096,"internal_node_id":"0.0-19.39-1.39"},{"penalty":250,"trial_type":"html-keyboard-response","trial_index":104,"time_elapsed":598096,"internal_node_id":"0.0-19.39-1.39"},{"fined":false,"trial_type":"html-keyboard-response","trial_index":104,"time_elapsed":598096,"internal_node_id":"0.0-19.39-1.39"},{"rt":null,"stimulus":"<div style=\"background-color:#6dce98\"><h1 style=\"background-color:MediumSeaGreen\" >You earned 50 coins! Well done!</h1><div style=\"background-color:#6dce98\"><h1 style=\"background-color:MediumSeaGreen\" >Only 2900 left to go!</h1><img id=\"box\" src=\"img/prizes/coins.png\"></img><img id=\"box\" src=\"img/empty/redopenbox.png\"></img></div>","key_press":null,"trial_type":"html-keyboard-response","trial_index":104,"time_elapsed":601097,"internal_node_id":"0.0-19.39-1.39"},{"rt":950.3099999856204,"stimulus":"<p>Choose a box,</p>","button_pressed":3,"trial_type":"html-button-response","trial_index":105,"time_elapsed":602048,"internal_node_id":"0.0-19.40-0.40"},{"reward":50,"trial_type":"html-keyboard-response","trial_index":106,"time_elapsed":602049,"internal_node_id":"0.0-19.40-1.40"},{"penalty":250,"trial_type":"html-keyboard-response","trial_index":106,"time_elapsed":602049,"internal_node_id":"0.0-19.40-1.40"},{"fined":false,"trial_type":"html-keyboard-response","trial_index":106,"time_elapsed":602049,"internal_node_id":"0.0-19.40-1.40"},{"rt":null,"stimulus":"<div style=\"background-color:#6dce98\"><h1 style=\"background-color:MediumSeaGreen\" >You earned 50 coins! Well done!</h1><div style=\"background-color:#6dce98\"><h1 style=\"background-color:MediumSeaGreen\" >Only 2850 left to go!</h1><img id=\"box\" src=\"img/prizes/coins.png\"></img><img id=\"box\" src=\"img/empty/redopenbox.png\"></img></div>","key_press":null,"trial_type":"html-keyboard-response","trial_index":106,"time_elapsed":605059,"internal_node_id":"0.0-19.40-1.40"},{"rt":2220.590000040829,"stimulus":"<p>Choose a box,</p>","button_pressed":2,"trial_type":"html-button-response","trial_index":107,"time_elapsed":607280,"internal_node_id":"0.0-19.41-0.41"},{"reward":50,"trial_type":"html-keyboard-response","trial_index":108,"time_elapsed":607280,"internal_node_id":"0.0-19.41-1.41"},{"penalty":50,"trial_type":"html-keyboard-response","trial_index":108,"time_elapsed":607280,"internal_node_id":"0.0-19.41-1.41"},{"fined":true,"trial_type":"html-keyboard-response","trial_index":108,"time_elapsed":607280,"internal_node_id":"0.0-19.41-1.41"},{"rt":null,"stimulus":"<div style=\"background-color:#ff7157\"><h1 style=\"background-color:MediumSeaGreen\">You earned 50 coins</h1><h1 h1 style=\"background-color:Tomato\">but you have recieved a fine of 50 coins</h1><h1 style=\"background-color:Tomato\">Remember, you need to keep going until you have 3000 coins!</h1><img id=\"box\" src=\"img/prizes/50.png\"></img><img id=\"box\" src=\"img/sad/purpleopenboxsadthumb.png\"></img></div>","key_press":null,"trial_type":"html-keyboard-response","trial_index":108,"time_elapsed":610281,"internal_node_id":"0.0-19.41-1.41"},{"rt":701.6150000272319,"stimulus":"<p>Choose a box,</p>","button_pressed":3,"trial_type":"html-button-response","trial_index":109,"time_elapsed":610984,"internal_node_id":"0.0-19.42-0.42"},{"reward":50,"trial_type":"html-keyboard-response","trial_index":110,"time_elapsed":610984,"internal_node_id":"0.0-19.42-1.42"},{"penalty":250,"trial_type":"html-keyboard-response","trial_index":110,"time_elapsed":610984,"internal_node_id":"0.0-19.42-1.42"},{"fined":false,"trial_type":"html-keyboard-response","trial_index":110,"time_elapsed":610984,"internal_node_id":"0.0-19.42-1.42"},{"rt":null,"stimulus":"<div style=\"background-color:#6dce98\"><h1 style=\"background-color:MediumSeaGreen\" >You earned 50 coins! Well done!</h1><div style=\"background-color:#6dce98\"><h1 style=\"background-color:MediumSeaGreen\" >Only 2800 left to go!</h1><img id=\"box\" src=\"img/prizes/coins.png\"></img><img id=\"box\" src=\"img/empty/redopenbox.png\"></img></div>","key_press":null,"trial_type":"html-keyboard-response","trial_index":110,"time_elapsed":613986,"internal_node_id":"0.0-19.42-1.42"},{"rt":797.870000009425,"stimulus":"<p>Choose a box,</p>","button_pressed":3,"trial_type":"html-button-response","trial_index":111,"time_elapsed":614784,"internal_node_id":"0.0-19.43-0.43"},{"reward":50,"trial_type":"html-keyboard-response","trial_index":112,"time_elapsed":614784,"internal_node_id":"0.0-19.43-1.43"},{"penalty":250,"trial_type":"html-keyboard-response","trial_index":112,"time_elapsed":614784,"internal_node_id":"0.0-19.43-1.43"},{"fined":true,"trial_type":"html-keyboard-response","trial_index":112,"time_elapsed":614784,"internal_node_id":"0.0-19.43-1.43"},{"rt":null,"stimulus":"<div style=\"background-color:#ff7157\"><h1 style=\"background-color:MediumSeaGreen\">You earned 50 coins</h1><h1 h1 style=\"background-color:Tomato\">but you have recieved a fine of 250 coins</h1><h1 style=\"background-color:Tomato\">Remember, you need to keep going until you have 3000 coins!</h1><img id=\"box\" src=\"img/prizes/250.png\"></img><img id=\"box\" src=\"img/sad/redopenboxsadthumb.png\"></img></div>","key_press":null,"trial_type":"html-keyboard-response","trial_index":112,"time_elapsed":617785,"internal_node_id":"0.0-19.43-1.43"},{"rt":3350.6449999986216,"stimulus":"<p>Choose a box,</p>","button_pressed":0,"trial_type":"html-button-response","trial_index":113,"time_elapsed":621136,"internal_node_id":"0.0-19.44-0.44"},{"reward":100,"trial_type":"html-keyboard-response","trial_index":114,"time_elapsed":621136,"internal_node_id":"0.0-19.44-1.44"},{"penalty":250,"trial_type":"html-keyboard-response","trial_index":114,"time_elapsed":621136,"internal_node_id":"0.0-19.44-1.44"},{"fined":false,"trial_type":"html-keyboard-response","trial_index":114,"time_elapsed":621136,"internal_node_id":"0.0-19.44-1.44"},{"rt":null,"stimulus":"<div style=\"background-color:#6dce98\"><h1 style=\"background-color:MediumSeaGreen\" >You earned 100 coins! Well done!</h1><div style=\"background-color:#6dce98\"><h1 style=\"background-color:MediumSeaGreen\" >Only 2900 left to go!</h1><img id=\"box\" src=\"img/prizes/coins2.png\"></img><img id=\"box\" src=\"img/empty/blueopenbox.png\"></img></div>","key_press":null,"trial_type":"html-keyboard-response","trial_index":114,"time_elapsed":624147,"internal_node_id":"0.0-19.44-1.44"},{"rt":1700.1400000881404,"stimulus":"<p>Choose a box,</p>","button_pressed":1,"trial_type":"html-button-response","trial_index":115,"time_elapsed":625848,"internal_node_id":"0.0-19.45-0.45"},{"reward":100,"trial_type":"html-keyboard-response","trial_index":116,"time_elapsed":625848,"internal_node_id":"0.0-19.45-1.45"},{"penalty":1250,"trial_type":"html-keyboard-response","trial_index":116,"time_elapsed":625848,"internal_node_id":"0.0-19.45-1.45"},{"fined":false,"trial_type":"html-keyboard-response","trial_index":116,"time_elapsed":625848,"internal_node_id":"0.0-19.45-1.45"},{"rt":null,"stimulus":"<div style=\"background-color:#6dce98\"><h1 style=\"background-color:MediumSeaGreen\" >You earned 100 coins! Well done!</h1><div style=\"background-color:#6dce98\"><h1 style=\"background-color:MediumSeaGreen\" >Only 2800 left to go!</h1><img id=\"box\" src=\"img/prizes/coins2.png\"></img><img id=\"box\" src=\"img/empty/greenopenbox.png\"></img></div>","key_press":null,"trial_type":"html-keyboard-response","trial_index":116,"time_elapsed":628849,"internal_node_id":"0.0-19.45-1.45"},{"rt":4054.090000106953,"stimulus":"<p>Choose a box,</p>","button_pressed":0,"trial_type":"html-button-response","trial_index":117,"time_elapsed":632904,"internal_node_id":"0.0-19.46-0.46"},{"reward":100,"trial_type":"html-keyboard-response","trial_index":118,"time_elapsed":632904,"internal_node_id":"0.0-19.46-1.46"},{"penalty":250,"trial_type":"html-keyboard-response","trial_index":118,"time_elapsed":632904,"internal_node_id":"0.0-19.46-1.46"},{"fined":true,"trial_type":"html-keyboard-response","trial_index":118,"time_elapsed":632904,"internal_node_id":"0.0-19.46-1.46"},{"rt":null,"stimulus":"<div style=\"background-color:#ff7157\"><h1 style=\"background-color:MediumSeaGreen\">You earned 100 coins</h1><h1 h1 style=\"background-color:Tomato\">but you have recieved a fine of 250 coins</h1><h1 style=\"background-color:Tomato\">Remember, you need to keep going until you have 3000 coins!</h1><img id=\"box\" src=\"img/prizes/250.png\"></img><img id=\"box\" src=\"img/sad/blueopenboxsadthumb.png\"></img></div>","key_press":null,"trial_type":"html-keyboard-response","trial_index":118,"time_elapsed":635905,"internal_node_id":"0.0-19.46-1.46"},{"rt":590.2000000933185,"stimulus":"<p>Choose a box,</p>","button_pressed":1,"trial_type":"html-button-response","trial_index":119,"time_elapsed":636496,"internal_node_id":"0.0-19.47-0.47"},{"reward":100,"trial_type":"html-keyboard-response","trial_index":120,"time_elapsed":636496,"internal_node_id":"0.0-19.47-1.47"},{"penalty":1250,"trial_type":"html-keyboard-response","trial_index":120,"time_elapsed":636496,"internal_node_id":"0.0-19.47-1.47"},{"fined":false,"trial_type":"html-keyboard-response","trial_index":120,"time_elapsed":636496,"internal_node_id":"0.0-19.47-1.47"},{"rt":null,"stimulus":"<div style=\"background-color:#6dce98\"><h1 style=\"background-color:MediumSeaGreen\" >You earned 100 coins! Well done!</h1><div style=\"background-color:#6dce98\"><h1 style=\"background-color:MediumSeaGreen\" >Only 2850 left to go!</h1><img id=\"box\" src=\"img/prizes/coins2.png\"></img><img id=\"box\" src=\"img/empty/greenopenbox.png\"></img></div>","key_press":null,"trial_type":"html-keyboard-response","trial_index":120,"time_elapsed":639497,"internal_node_id":"0.0-19.47-1.47"},{"rt":646.0100000258535,"stimulus":"<p>Choose a box,</p>","button_pressed":1,"trial_type":"html-button-response","trial_index":121,"time_elapsed":640144,"internal_node_id":"0.0-19.48-0.48"},{"reward":100,"trial_type":"html-keyboard-response","trial_index":122,"time_elapsed":640144,"internal_node_id":"0.0-19.48-1.48"},{"penalty":1250,"trial_type":"html-keyboard-response","trial_index":122,"time_elapsed":640144,"internal_node_id":"0.0-19.48-1.48"},{"fined":false,"trial_type":"html-keyboard-response","trial_index":122,"time_elapsed":640144,"internal_node_id":"0.0-19.48-1.48"},{"rt":null,"stimulus":"<div style=\"background-color:#6dce98\"><h1 style=\"background-color:MediumSeaGreen\" >You earned 100 coins! Well done!</h1><div style=\"background-color:#6dce98\"><h1 style=\"background-color:MediumSeaGreen\" >Only 2750 left to go!</h1><img id=\"box\" src=\"img/prizes/coins2.png\"></img><img id=\"box\" src=\"img/empty/greenopenbox.png\"></img></div>","key_press":null,"trial_type":"html-keyboard-response","trial_index":122,"time_elapsed":643155,"internal_node_id":"0.0-19.48-1.48"},{"rt":1308.3000000333413,"stimulus":"<p>Choose a box,</p>","button_pressed":2,"trial_type":"html-button-response","trial_index":123,"time_elapsed":644464,"internal_node_id":"0.0-19.49-0.49"},{"reward":50,"trial_type":"html-keyboard-response","trial_index":124,"time_elapsed":644464,"internal_node_id":"0.0-19.49-1.49"},{"penalty":50,"trial_type":"html-keyboard-response","trial_index":124,"time_elapsed":644464,"internal_node_id":"0.0-19.49-1.49"},{"fined":false,"trial_type":"html-keyboard-response","trial_index":124,"time_elapsed":644464,"internal_node_id":"0.0-19.49-1.49"},{"rt":null,"stimulus":"<div style=\"background-color:#6dce98\"><h1 style=\"background-color:MediumSeaGreen\" >You earned 50 coins! Well done!</h1><div style=\"background-color:#6dce98\"><h1 style=\"background-color:MediumSeaGreen\" >Only 2700 left to go!</h1><img id=\"box\" src=\"img/prizes/coins.png\"></img><img id=\"box\" src=\"img/empty/purpleopenbox.png\"></img></div>","key_press":null,"trial_type":"html-keyboard-response","trial_index":124,"time_elapsed":647467,"internal_node_id":"0.0-19.49-1.49"},{"rt":1260.2150000166148,"stimulus":"<p>Choose a box,</p>","button_pressed":3,"trial_type":"html-button-response","trial_index":125,"time_elapsed":648728,"internal_node_id":"0.0-19.50-0.50"},{"reward":50,"trial_type":"html-keyboard-response","trial_index":126,"time_elapsed":648728,"internal_node_id":"0.0-19.50-1.50"},{"penalty":250,"trial_type":"html-keyboard-response","trial_index":126,"time_elapsed":648728,"internal_node_id":"0.0-19.50-1.50"},{"fined":false,"trial_type":"html-keyboard-response","trial_index":126,"time_elapsed":648728,"internal_node_id":"0.0-19.50-1.50"},{"rt":null,"stimulus":"<div style=\"background-color:#6dce98\"><h1 style=\"background-color:MediumSeaGreen\" >You earned 50 coins! Well done!</h1><div style=\"background-color:#6dce98\"><h1 style=\"background-color:MediumSeaGreen\" >Only 2650 left to go!</h1><img id=\"box\" src=\"img/prizes/coins.png\"></img><img id=\"box\" src=\"img/empty/redopenbox.png\"></img></div>","key_press":null,"trial_type":"html-keyboard-response","trial_index":126,"time_elapsed":651730,"internal_node_id":"0.0-19.50-1.50"},{"rt":773.8250000402331,"stimulus":"<p>Choose a box,</p>","button_pressed":0,"trial_type":"html-button-response","trial_index":127,"time_elapsed":652504,"internal_node_id":"0.0-19.51-0.51"},{"reward":100,"trial_type":"html-keyboard-response","trial_index":128,"time_elapsed":652504,"internal_node_id":"0.0-19.51-1.51"},{"penalty":250,"trial_type":"html-keyboard-response","trial_index":128,"time_elapsed":652504,"internal_node_id":"0.0-19.51-1.51"},{"fined":true,"trial_type":"html-keyboard-response","trial_index":128,"time_elapsed":652504,"internal_node_id":"0.0-19.51-1.51"},{"rt":null,"stimulus":"<div style=\"background-color:#ff7157\"><h1 style=\"background-color:MediumSeaGreen\">You earned 100 coins</h1><h1 h1 style=\"background-color:Tomato\">but you have recieved a fine of 250 coins</h1><h1 style=\"background-color:Tomato\">Remember, you need to keep going until you have 3000 coins!</h1><img id=\"box\" src=\"img/prizes/250.png\"></img><img id=\"box\" src=\"img/sad/blueopenboxsadthumb.png\"></img></div>","key_press":null,"trial_type":"html-keyboard-response","trial_index":128,"time_elapsed":655508,"internal_node_id":"0.0-19.51-1.51"},{"rt":2491.4200000930578,"stimulus":"<p>Choose a box,</p>","button_pressed":1,"trial_type":"html-button-response","trial_index":129,"time_elapsed":658000,"internal_node_id":"0.0-19.52-0.52"},{"reward":100,"trial_type":"html-keyboard-response","trial_index":130,"time_elapsed":658001,"internal_node_id":"0.0-19.52-1.52"},{"penalty":1250,"trial_type":"html-keyboard-response","trial_index":130,"time_elapsed":658001,"internal_node_id":"0.0-19.52-1.52"},{"fined":false,"trial_type":"html-keyboard-response","trial_index":130,"time_elapsed":658001,"internal_node_id":"0.0-19.52-1.52"},{"rt":null,"stimulus":"<div style=\"background-color:#6dce98\"><h1 style=\"background-color:MediumSeaGreen\" >You earned 100 coins! Well done!</h1><div style=\"background-color:#6dce98\"><h1 style=\"background-color:MediumSeaGreen\" >Only 2700 left to go!</h1><img id=\"box\" src=\"img/prizes/coins2.png\"></img><img id=\"box\" src=\"img/empty/greenopenbox.png\"></img></div>","key_press":null,"trial_type":"html-keyboard-response","trial_index":130,"time_elapsed":661015,"internal_node_id":"0.0-19.52-1.52"},{"rt":616.4499999722466,"stimulus":"<p>Choose a box,</p>","button_pressed":1,"trial_type":"html-button-response","trial_index":131,"time_elapsed":661632,"internal_node_id":"0.0-19.53-0.53"},{"reward":100,"trial_type":"html-keyboard-response","trial_index":132,"time_elapsed":661633,"internal_node_id":"0.0-19.53-1.53"},{"penalty":1250,"trial_type":"html-keyboard-response","trial_index":132,"time_elapsed":661633,"internal_node_id":"0.0-19.53-1.53"},{"fined":false,"trial_type":"html-keyboard-response","trial_index":132,"time_elapsed":661633,"internal_node_id":"0.0-19.53-1.53"},{"rt":null,"stimulus":"<div style=\"background-color:#6dce98\"><h1 style=\"background-color:MediumSeaGreen\" >You earned 100 coins! Well done!</h1><div style=\"background-color:#6dce98\"><h1 style=\"background-color:MediumSeaGreen\" >Only 2600 left to go!</h1><img id=\"box\" src=\"img/prizes/coins2.png\"></img><img id=\"box\" src=\"img/empty/greenopenbox.png\"></img></div>","key_press":null,"trial_type":"html-keyboard-response","trial_index":132,"time_elapsed":664641,"internal_node_id":"0.0-19.53-1.53"},{"rt":3375.0350000336766,"stimulus":"<p>Choose a box,</p>","button_pressed":1,"trial_type":"html-button-response","trial_index":133,"time_elapsed":668016,"internal_node_id":"0.0-19.54-0.54"},{"reward":100,"trial_type":"html-keyboard-response","trial_index":134,"time_elapsed":668017,"internal_node_id":"0.0-19.54-1.54"},{"penalty":1250,"trial_type":"html-keyboard-response","trial_index":134,"time_elapsed":668017,"internal_node_id":"0.0-19.54-1.54"},{"fined":false,"trial_type":"html-keyboard-response","trial_index":134,"time_elapsed":668017,"internal_node_id":"0.0-19.54-1.54"},{"rt":null,"stimulus":"<div style=\"background-color:#6dce98\"><h1 style=\"background-color:MediumSeaGreen\" >You earned 100 coins! Well done!</h1><div style=\"background-color:#6dce98\"><h1 style=\"background-color:MediumSeaGreen\" >Only 2500 left to go!</h1><img id=\"box\" src=\"img/prizes/coins2.png\"></img><img id=\"box\" src=\"img/empty/greenopenbox.png\"></img></div>","key_press":null,"trial_type":"html-keyboard-response","trial_index":134,"time_elapsed":671024,"internal_node_id":"0.0-19.54-1.54"},{"rt":3207.924999995157,"stimulus":"<p>Choose a box,</p>","button_pressed":1,"trial_type":"html-button-response","trial_index":135,"time_elapsed":674232,"internal_node_id":"0.0-19.55-0.55"},{"reward":100,"trial_type":"html-keyboard-response","trial_index":136,"time_elapsed":674233,"internal_node_id":"0.0-19.55-1.55"},{"penalty":1250,"trial_type":"html-keyboard-response","trial_index":136,"time_elapsed":674233,"internal_node_id":"0.0-19.55-1.55"},{"fined":false,"trial_type":"html-keyboard-response","trial_index":136,"time_elapsed":674233,"internal_node_id":"0.0-19.55-1.55"},{"rt":null,"stimulus":"<div style=\"background-color:#6dce98\"><h1 style=\"background-color:MediumSeaGreen\" >You earned 100 coins! Well done!</h1><div style=\"background-color:#6dce98\"><h1 style=\"background-color:MediumSeaGreen\" >Only 2400 left to go!</h1><img id=\"box\" src=\"img/prizes/coins2.png\"></img><img id=\"box\" src=\"img/empty/greenopenbox.png\"></img></div>","key_press":null,"trial_type":"html-keyboard-response","trial_index":136,"time_elapsed":677244,"internal_node_id":"0.0-19.55-1.55"},{"rt":2627.559999935329,"stimulus":"<p>Choose a box,</p>","button_pressed":1,"trial_type":"html-button-response","trial_index":137,"time_elapsed":679872,"internal_node_id":"0.0-19.56-0.56"},{"reward":100,"trial_type":"html-keyboard-response","trial_index":138,"time_elapsed":679873,"internal_node_id":"0.0-19.56-1.56"},{"penalty":1250,"trial_type":"html-keyboard-response","trial_index":138,"time_elapsed":679873,"internal_node_id":"0.0-19.56-1.56"},{"fined":false,"trial_type":"html-keyboard-response","trial_index":138,"time_elapsed":679873,"internal_node_id":"0.0-19.56-1.56"},{"rt":null,"stimulus":"<div style=\"background-color:#6dce98\"><h1 style=\"background-color:MediumSeaGreen\" >You earned 100 coins! Well done!</h1><div style=\"background-color:#6dce98\"><h1 style=\"background-color:MediumSeaGreen\" >Only 2300 left to go!</h1><img id=\"box\" src=\"img/prizes/coins2.png\"></img><img id=\"box\" src=\"img/empty/greenopenbox.png\"></img></div>","key_press":null,"trial_type":"html-keyboard-response","trial_index":138,"time_elapsed":682889,"internal_node_id":"0.0-19.56-1.56"},{"rt":3526.3050000648946,"stimulus":"<p>Choose a box,</p>","button_pressed":3,"trial_type":"html-button-response","trial_index":139,"time_elapsed":686416,"internal_node_id":"0.0-19.57-0.57"},{"reward":50,"trial_type":"html-keyboard-response","trial_index":140,"time_elapsed":686417,"internal_node_id":"0.0-19.57-1.57"},{"penalty":250,"trial_type":"html-keyboard-response","trial_index":140,"time_elapsed":686417,"internal_node_id":"0.0-19.57-1.57"},{"fined":false,"trial_type":"html-keyboard-response","trial_index":140,"time_elapsed":686417,"internal_node_id":"0.0-19.57-1.57"},{"rt":null,"stimulus":"<div style=\"background-color:#6dce98\"><h1 style=\"background-color:MediumSeaGreen\" >You earned 50 coins! Well done!</h1><div style=\"background-color:#6dce98\"><h1 style=\"background-color:MediumSeaGreen\" >Only 2250 left to go!</h1><img id=\"box\" src=\"img/prizes/coins.png\"></img><img id=\"box\" src=\"img/empty/redopenbox.png\"></img></div>","key_press":null,"trial_type":"html-keyboard-response","trial_index":140,"time_elapsed":689423,"internal_node_id":"0.0-19.57-1.57"},{"rt":808.6950000142679,"stimulus":"<p>Choose a box,</p>","button_pressed":1,"trial_type":"html-button-response","trial_index":141,"time_elapsed":690232,"internal_node_id":"0.0-19.58-0.58"},{"reward":100,"trial_type":"html-keyboard-response","trial_index":142,"time_elapsed":690233,"internal_node_id":"0.0-19.58-1.58"},{"penalty":1250,"trial_type":"html-keyboard-response","trial_index":142,"time_elapsed":690233,"internal_node_id":"0.0-19.58-1.58"},{"fined":false,"trial_type":"html-keyboard-response","trial_index":142,"time_elapsed":690233,"internal_node_id":"0.0-19.58-1.58"},{"rt":null,"stimulus":"<div style=\"background-color:#6dce98\"><h1 style=\"background-color:MediumSeaGreen\" >You earned 100 coins! Well done!</h1><div style=\"background-color:#6dce98\"><h1 style=\"background-color:MediumSeaGreen\" >Only 2150 left to go!</h1><img id=\"box\" src=\"img/prizes/coins2.png\"></img><img id=\"box\" src=\"img/empty/greenopenbox.png\"></img></div>","key_press":null,"trial_type":"html-keyboard-response","trial_index":142,"time_elapsed":693233,"internal_node_id":"0.0-19.58-1.58"},{"rt":1870.0849999440834,"stimulus":"<p>Choose a box,</p>","button_pressed":1,"trial_type":"html-button-response","trial_index":143,"time_elapsed":695104,"internal_node_id":"0.0-19.59-0.59"},{"reward":100,"trial_type":"html-keyboard-response","trial_index":144,"time_elapsed":695104,"internal_node_id":"0.0-19.59-1.59"},{"penalty":1250,"trial_type":"html-keyboard-response","trial_index":144,"time_elapsed":695105,"internal_node_id":"0.0-19.59-1.59"},{"fined":false,"trial_type":"html-keyboard-response","trial_index":144,"time_elapsed":695105,"internal_node_id":"0.0-19.59-1.59"},{"rt":null,"stimulus":"<div style=\"background-color:#6dce98\"><h1 style=\"background-color:MediumSeaGreen\" >You earned 100 coins! Well done!</h1><div style=\"background-color:#6dce98\"><h1 style=\"background-color:MediumSeaGreen\" >Only 2050 left to go!</h1><img id=\"box\" src=\"img/prizes/coins2.png\"></img><img id=\"box\" src=\"img/empty/greenopenbox.png\"></img></div>","key_press":null,"trial_type":"html-keyboard-response","trial_index":144,"time_elapsed":698107,"internal_node_id":"0.0-19.59-1.59"},{"rt":900.9749999968335,"stimulus":"<p>Choose a box,</p>","button_pressed":0,"trial_type":"html-button-response","trial_index":145,"time_elapsed":699009,"internal_node_id":"0.0-19.60-0.60"},{"reward":100,"trial_type":"html-keyboard-response","trial_index":146,"time_elapsed":699009,"internal_node_id":"0.0-19.60-1.60"},{"penalty":250,"trial_type":"html-keyboard-response","trial_index":146,"time_elapsed":699009,"internal_node_id":"0.0-19.60-1.60"},{"fined":true,"trial_type":"html-keyboard-response","trial_index":146,"time_elapsed":699009,"internal_node_id":"0.0-19.60-1.60"},{"rt":null,"stimulus":"<div style=\"background-color:#ff7157\"><h1 style=\"background-color:MediumSeaGreen\">You earned 100 coins</h1><h1 h1 style=\"background-color:Tomato\">but you have recieved a fine of 250 coins</h1><h1 style=\"background-color:Tomato\">Remember, you need to keep going until you have 3000 coins!</h1><img id=\"box\" src=\"img/prizes/250.png\"></img><img id=\"box\" src=\"img/sad/blueopenboxsadthumb.png\"></img></div>","key_press":null,"trial_type":"html-keyboard-response","trial_index":146,"time_elapsed":702011,"internal_node_id":"0.0-19.60-1.60"},{"rt":692.4850000068545,"stimulus":"<p>Choose a box,</p>","button_pressed":1,"trial_type":"html-button-response","trial_index":147,"time_elapsed":702704,"internal_node_id":"0.0-19.61-0.61"},{"reward":100,"trial_type":"html-keyboard-response","trial_index":148,"time_elapsed":702704,"internal_node_id":"0.0-19.61-1.61"},{"penalty":1250,"trial_type":"html-keyboard-response","trial_index":148,"time_elapsed":702704,"internal_node_id":"0.0-19.61-1.61"},{"fined":false,"trial_type":"html-keyboard-response","trial_index":148,"time_elapsed":702704,"internal_node_id":"0.0-19.61-1.61"},{"rt":null,"stimulus":"<div style=\"background-color:#6dce98\"><h1 style=\"background-color:MediumSeaGreen\" >You earned 100 coins! Well done!</h1><div style=\"background-color:#6dce98\"><h1 style=\"background-color:MediumSeaGreen\" >Only 2100 left to go!</h1><img id=\"box\" src=\"img/prizes/coins2.png\"></img><img id=\"box\" src=\"img/empty/greenopenbox.png\"></img></div>","key_press":null,"trial_type":"html-keyboard-response","trial_index":148,"time_elapsed":705707,"internal_node_id":"0.0-19.61-1.61"},{"rt":492.90499999187887,"stimulus":"<p>Choose a box,</p>","button_pressed":1,"trial_type":"html-button-response","trial_index":149,"time_elapsed":706200,"internal_node_id":"0.0-19.62-0.62"},{"reward":100,"trial_type":"html-keyboard-response","trial_index":150,"time_elapsed":706201,"internal_node_id":"0.0-19.62-1.62"},{"penalty":1250,"trial_type":"html-keyboard-response","trial_index":150,"time_elapsed":706201,"internal_node_id":"0.0-19.62-1.62"},{"fined":false,"trial_type":"html-keyboard-response","trial_index":150,"time_elapsed":706201,"internal_node_id":"0.0-19.62-1.62"},{"rt":null,"stimulus":"<div style=\"background-color:#6dce98\"><h1 style=\"background-color:MediumSeaGreen\" >You earned 100 coins! Well done!</h1><div style=\"background-color:#6dce98\"><h1 style=\"background-color:MediumSeaGreen\" >Only 2000 left to go!</h1><img id=\"box\" src=\"img/prizes/coins2.png\"></img><img id=\"box\" src=\"img/empty/greenopenbox.png\"></img></div>","key_press":null,"trial_type":"html-keyboard-response","trial_index":150,"time_elapsed":709202,"internal_node_id":"0.0-19.62-1.62"},{"rt":1990.0400000624359,"stimulus":"<p>Choose a box,</p>","button_pressed":2,"trial_type":"html-button-response","trial_index":151,"time_elapsed":711192,"internal_node_id":"0.0-19.63-0.63"},{"reward":50,"trial_type":"html-keyboard-response","trial_index":152,"time_elapsed":711193,"internal_node_id":"0.0-19.63-1.63"},{"penalty":50,"trial_type":"html-keyboard-response","trial_index":152,"time_elapsed":711193,"internal_node_id":"0.0-19.63-1.63"},{"fined":true,"trial_type":"html-keyboard-response","trial_index":152,"time_elapsed":711193,"internal_node_id":"0.0-19.63-1.63"},{"rt":null,"stimulus":"<div style=\"background-color:#ff7157\"><h1 style=\"background-color:MediumSeaGreen\">You earned 50 coins</h1><h1 h1 style=\"background-color:Tomato\">but you have recieved a fine of 50 coins</h1><h1 style=\"background-color:Tomato\">Remember, you need to keep going until you have 3000 coins!</h1><img id=\"box\" src=\"img/prizes/50.png\"></img><img id=\"box\" src=\"img/sad/purpleopenboxsadthumb.png\"></img></div>","key_press":null,"trial_type":"html-keyboard-response","trial_index":152,"time_elapsed":714195,"internal_node_id":"0.0-19.63-1.63"},{"rt":468.9000000944361,"stimulus":"<p>Choose a box,</p>","button_pressed":3,"trial_type":"html-button-response","trial_index":153,"time_elapsed":714664,"internal_node_id":"0.0-19.64-0.64"},{"reward":50,"trial_type":"html-keyboard-response","trial_index":154,"time_elapsed":714664,"internal_node_id":"0.0-19.64-1.64"},{"penalty":250,"trial_type":"html-keyboard-response","trial_index":154,"time_elapsed":714664,"internal_node_id":"0.0-19.64-1.64"},{"fined":false,"trial_type":"html-keyboard-response","trial_index":154,"time_elapsed":714664,"internal_node_id":"0.0-19.64-1.64"},{"rt":null,"stimulus":"<div style=\"background-color:#6dce98\"><h1 style=\"background-color:MediumSeaGreen\" >You earned 50 coins! Well done!</h1><div style=\"background-color:#6dce98\"><h1 style=\"background-color:MediumSeaGreen\" >Only 1950 left to go!</h1><img id=\"box\" src=\"img/prizes/coins.png\"></img><img id=\"box\" src=\"img/empty/redopenbox.png\"></img></div>","key_press":null,"trial_type":"html-keyboard-response","trial_index":154,"time_elapsed":717665,"internal_node_id":"0.0-19.64-1.64"},{"rt":470.10999999474734,"stimulus":"<p>Choose a box,</p>","button_pressed":1,"trial_type":"html-button-response","trial_index":155,"time_elapsed":718136,"internal_node_id":"0.0-19.65-0.65"},{"reward":100,"trial_type":"html-keyboard-response","trial_index":156,"time_elapsed":718136,"internal_node_id":"0.0-19.65-1.65"},{"penalty":1250,"trial_type":"html-keyboard-response","trial_index":156,"time_elapsed":718136,"internal_node_id":"0.0-19.65-1.65"},{"fined":false,"trial_type":"html-keyboard-response","trial_index":156,"time_elapsed":718136,"internal_node_id":"0.0-19.65-1.65"},{"rt":null,"stimulus":"<div style=\"background-color:#6dce98\"><h1 style=\"background-color:MediumSeaGreen\" >You earned 100 coins! Well done!</h1><div style=\"background-color:#6dce98\"><h1 style=\"background-color:MediumSeaGreen\" >Only 1850 left to go!</h1><img id=\"box\" src=\"img/prizes/coins2.png\"></img><img id=\"box\" src=\"img/empty/greenopenbox.png\"></img></div>","key_press":null,"trial_type":"html-keyboard-response","trial_index":156,"time_elapsed":721137,"internal_node_id":"0.0-19.65-1.65"},{"rt":1126.2250000145286,"stimulus":"<p>Choose a box,</p>","button_pressed":3,"trial_type":"html-button-response","trial_index":157,"time_elapsed":722264,"internal_node_id":"0.0-19.66-0.66"},{"reward":50,"trial_type":"html-keyboard-response","trial_index":158,"time_elapsed":722264,"internal_node_id":"0.0-19.66-1.66"},{"penalty":250,"trial_type":"html-keyboard-response","trial_index":158,"time_elapsed":722264,"internal_node_id":"0.0-19.66-1.66"},{"fined":false,"trial_type":"html-keyboard-response","trial_index":158,"time_elapsed":722264,"internal_node_id":"0.0-19.66-1.66"},{"rt":null,"stimulus":"<div style=\"background-color:#6dce98\"><h1 style=\"background-color:MediumSeaGreen\" >You earned 50 coins! Well done!</h1><div style=\"background-color:#6dce98\"><h1 style=\"background-color:MediumSeaGreen\" >Only 1800 left to go!</h1><img id=\"box\" src=\"img/prizes/coins.png\"></img><img id=\"box\" src=\"img/empty/redopenbox.png\"></img></div>","key_press":null,"trial_type":"html-keyboard-response","trial_index":158,"time_elapsed":725280,"internal_node_id":"0.0-19.66-1.66"},{"rt":966.4900000207126,"stimulus":"<p>Choose a box,</p>","button_pressed":1,"trial_type":"html-button-response","trial_index":159,"time_elapsed":726248,"internal_node_id":"0.0-19.67-0.67"},{"reward":100,"trial_type":"html-keyboard-response","trial_index":160,"time_elapsed":726248,"internal_node_id":"0.0-19.67-1.67"},{"penalty":1250,"trial_type":"html-keyboard-response","trial_index":160,"time_elapsed":726248,"internal_node_id":"0.0-19.67-1.67"},{"fined":false,"trial_type":"html-keyboard-response","trial_index":160,"time_elapsed":726248,"internal_node_id":"0.0-19.67-1.67"},{"rt":null,"stimulus":"<div style=\"background-color:#6dce98\"><h1 style=\"background-color:MediumSeaGreen\" >You earned 100 coins! Well done!</h1><div style=\"background-color:#6dce98\"><h1 style=\"background-color:MediumSeaGreen\" >Only 1700 left to go!</h1><img id=\"box\" src=\"img/prizes/coins2.png\"></img><img id=\"box\" src=\"img/empty/greenopenbox.png\"></img></div>","key_press":null,"trial_type":"html-keyboard-response","trial_index":160,"time_elapsed":729249,"internal_node_id":"0.0-19.67-1.67"},{"rt":845.8649999229237,"stimulus":"<p>Choose a box,</p>","button_pressed":3,"trial_type":"html-button-response","trial_index":161,"time_elapsed":730096,"internal_node_id":"0.0-19.68-0.68"},{"reward":50,"trial_type":"html-keyboard-response","trial_index":162,"time_elapsed":730096,"internal_node_id":"0.0-19.68-1.68"},{"penalty":250,"trial_type":"html-keyboard-response","trial_index":162,"time_elapsed":730096,"internal_node_id":"0.0-19.68-1.68"},{"fined":false,"trial_type":"html-keyboard-response","trial_index":162,"time_elapsed":730096,"internal_node_id":"0.0-19.68-1.68"},{"rt":null,"stimulus":"<div style=\"background-color:#6dce98\"><h1 style=\"background-color:MediumSeaGreen\" >You earned 50 coins! Well done!</h1><div style=\"background-color:#6dce98\"><h1 style=\"background-color:MediumSeaGreen\" >Only 1650 left to go!</h1><img id=\"box\" src=\"img/prizes/coins.png\"></img><img id=\"box\" src=\"img/empty/redopenbox.png\"></img></div>","key_press":null,"trial_type":"html-keyboard-response","trial_index":162,"time_elapsed":733099,"internal_node_id":"0.0-19.68-1.68"},{"rt":859.4400000292808,"stimulus":"<p>Choose a box,</p>","button_pressed":3,"trial_type":"html-button-response","trial_index":163,"time_elapsed":733960,"internal_node_id":"0.0-19.69-0.69"},{"reward":50,"trial_type":"html-keyboard-response","trial_index":164,"time_elapsed":733960,"internal_node_id":"0.0-19.69-1.69"},{"penalty":250,"trial_type":"html-keyboard-response","trial_index":164,"time_elapsed":733960,"internal_node_id":"0.0-19.69-1.69"},{"fined":false,"trial_type":"html-keyboard-response","trial_index":164,"time_elapsed":733960,"internal_node_id":"0.0-19.69-1.69"},{"rt":null,"stimulus":"<div style=\"background-color:#6dce98\"><h1 style=\"background-color:MediumSeaGreen\" >You earned 50 coins! Well done!</h1><div style=\"background-color:#6dce98\"><h1 style=\"background-color:MediumSeaGreen\" >Only 1600 left to go!</h1><img id=\"box\" src=\"img/prizes/coins.png\"></img><img id=\"box\" src=\"img/empty/redopenbox.png\"></img></div>","key_press":null,"trial_type":"html-keyboard-response","trial_index":164,"time_elapsed":736976,"internal_node_id":"0.0-19.69-1.69"},{"rt":1503.3399999374524,"stimulus":"<p>Choose a box,</p>","button_pressed":3,"trial_type":"html-button-response","trial_index":165,"time_elapsed":738480,"internal_node_id":"0.0-19.70-0.70"},{"reward":50,"trial_type":"html-keyboard-response","trial_index":166,"time_elapsed":738480,"internal_node_id":"0.0-19.70-1.70"},{"penalty":250,"trial_type":"html-keyboard-response","trial_index":166,"time_elapsed":738480,"internal_node_id":"0.0-19.70-1.70"},{"fined":false,"trial_type":"html-keyboard-response","trial_index":166,"time_elapsed":738480,"internal_node_id":"0.0-19.70-1.70"},{"rt":null,"stimulus":"<div style=\"background-color:#6dce98\"><h1 style=\"background-color:MediumSeaGreen\" >You earned 50 coins! Well done!</h1><div style=\"background-color:#6dce98\"><h1 style=\"background-color:MediumSeaGreen\" >Only 1550 left to go!</h1><img id=\"box\" src=\"img/prizes/coins.png\"></img><img id=\"box\" src=\"img/empty/redopenbox.png\"></img></div>","key_press":null,"trial_type":"html-keyboard-response","trial_index":166,"time_elapsed":741481,"internal_node_id":"0.0-19.70-1.70"},{"rt":541.9249999104068,"stimulus":"<p>Choose a box,</p>","button_pressed":1,"trial_type":"html-button-response","trial_index":167,"time_elapsed":742024,"internal_node_id":"0.0-19.71-0.71"},{"reward":100,"trial_type":"html-keyboard-response","trial_index":168,"time_elapsed":742024,"internal_node_id":"0.0-19.71-1.71"},{"penalty":1250,"trial_type":"html-keyboard-response","trial_index":168,"time_elapsed":742024,"internal_node_id":"0.0-19.71-1.71"},{"fined":false,"trial_type":"html-keyboard-response","trial_index":168,"time_elapsed":742024,"internal_node_id":"0.0-19.71-1.71"},{"rt":null,"stimulus":"<div style=\"background-color:#6dce98\"><h1 style=\"background-color:MediumSeaGreen\" >You earned 100 coins! Well done!</h1><div style=\"background-color:#6dce98\"><h1 style=\"background-color:MediumSeaGreen\" >Only 1450 left to go!</h1><img id=\"box\" src=\"img/prizes/coins2.png\"></img><img id=\"box\" src=\"img/empty/greenopenbox.png\"></img></div>","key_press":null,"trial_type":"html-keyboard-response","trial_index":168,"time_elapsed":745025,"internal_node_id":"0.0-19.71-1.71"},{"rt":542.3099999316037,"stimulus":"<p>Choose a box,</p>","button_pressed":1,"trial_type":"html-button-response","trial_index":169,"time_elapsed":745568,"internal_node_id":"0.0-19.72-0.72"},{"reward":100,"trial_type":"html-keyboard-response","trial_index":170,"time_elapsed":745568,"internal_node_id":"0.0-19.72-1.72"},{"penalty":1250,"trial_type":"html-keyboard-response","trial_index":170,"time_elapsed":745568,"internal_node_id":"0.0-19.72-1.72"},{"fined":false,"trial_type":"html-keyboard-response","trial_index":170,"time_elapsed":745568,"internal_node_id":"0.0-19.72-1.72"},{"rt":null,"stimulus":"<div style=\"background-color:#6dce98\"><h1 style=\"background-color:MediumSeaGreen\" >You earned 100 coins! Well done!</h1><div style=\"background-color:#6dce98\"><h1 style=\"background-color:MediumSeaGreen\" >Only 1350 left to go!</h1><img id=\"box\" src=\"img/prizes/coins2.png\"></img><img id=\"box\" src=\"img/empty/greenopenbox.png\"></img></div>","key_press":null,"trial_type":"html-keyboard-response","trial_index":170,"time_elapsed":748570,"internal_node_id":"0.0-19.72-1.72"},{"rt":620.8799999440089,"stimulus":"<p>Choose a box,</p>","button_pressed":3,"trial_type":"html-button-response","trial_index":171,"time_elapsed":749192,"internal_node_id":"0.0-19.73-0.73"},{"reward":50,"trial_type":"html-keyboard-response","trial_index":172,"time_elapsed":749192,"internal_node_id":"0.0-19.73-1.73"},{"penalty":250,"trial_type":"html-keyboard-response","trial_index":172,"time_elapsed":749192,"internal_node_id":"0.0-19.73-1.73"},{"fined":false,"trial_type":"html-keyboard-response","trial_index":172,"time_elapsed":749192,"internal_node_id":"0.0-19.73-1.73"},{"rt":null,"stimulus":"<div style=\"background-color:#6dce98\"><h1 style=\"background-color:MediumSeaGreen\" >You earned 50 coins! Well done!</h1><div style=\"background-color:#6dce98\"><h1 style=\"background-color:MediumSeaGreen\" >Only 1300 left to go!</h1><img id=\"box\" src=\"img/prizes/coins.png\"></img><img id=\"box\" src=\"img/empty/redopenbox.png\"></img></div>","key_press":null,"trial_type":"html-keyboard-response","trial_index":172,"time_elapsed":752193,"internal_node_id":"0.0-19.73-1.73"},{"rt":637.8900000127032,"stimulus":"<p>Choose a box,</p>","button_pressed":1,"trial_type":"html-button-response","trial_index":173,"time_elapsed":752832,"internal_node_id":"0.0-19.74-0.74"},{"reward":100,"trial_type":"html-keyboard-response","trial_index":174,"time_elapsed":752832,"internal_node_id":"0.0-19.74-1.74"},{"penalty":1250,"trial_type":"html-keyboard-response","trial_index":174,"time_elapsed":752832,"internal_node_id":"0.0-19.74-1.74"},{"fined":false,"trial_type":"html-keyboard-response","trial_index":174,"time_elapsed":752832,"internal_node_id":"0.0-19.74-1.74"},{"rt":null,"stimulus":"<div style=\"background-color:#6dce98\"><h1 style=\"background-color:MediumSeaGreen\" >You earned 100 coins! Well done!</h1><div style=\"background-color:#6dce98\"><h1 style=\"background-color:MediumSeaGreen\" >Only 1200 left to go!</h1><img id=\"box\" src=\"img/prizes/coins2.png\"></img><img id=\"box\" src=\"img/empty/greenopenbox.png\"></img></div>","key_press":null,"trial_type":"html-keyboard-response","trial_index":174,"time_elapsed":755833,"internal_node_id":"0.0-19.74-1.74"},{"rt":725.8650000439957,"stimulus":"<p>Choose a box,</p>","button_pressed":1,"trial_type":"html-button-response","trial_index":175,"time_elapsed":756559,"internal_node_id":"0.0-19.75-0.75"},{"reward":100,"trial_type":"html-keyboard-response","trial_index":176,"time_elapsed":756560,"internal_node_id":"0.0-19.75-1.75"},{"penalty":1250,"trial_type":"html-keyboard-response","trial_index":176,"time_elapsed":756560,"internal_node_id":"0.0-19.75-1.75"},{"fined":false,"trial_type":"html-keyboard-response","trial_index":176,"time_elapsed":756560,"internal_node_id":"0.0-19.75-1.75"},{"rt":null,"stimulus":"<div style=\"background-color:#6dce98\"><h1 style=\"background-color:MediumSeaGreen\" >You earned 100 coins! Well done!</h1><div style=\"background-color:#6dce98\"><h1 style=\"background-color:MediumSeaGreen\" >Only 1100 left to go!</h1><img id=\"box\" src=\"img/prizes/coins2.png\"></img><img id=\"box\" src=\"img/empty/greenopenbox.png\"></img></div>","key_press":null,"trial_type":"html-keyboard-response","trial_index":176,"time_elapsed":759561,"internal_node_id":"0.0-19.75-1.75"},{"rt":677.7999999467283,"stimulus":"<p>Choose a box,</p>","button_pressed":1,"trial_type":"html-button-response","trial_index":177,"time_elapsed":760240,"internal_node_id":"0.0-19.76-0.76"},{"reward":100,"trial_type":"html-keyboard-response","trial_index":178,"time_elapsed":760240,"internal_node_id":"0.0-19.76-1.76"},{"penalty":1250,"trial_type":"html-keyboard-response","trial_index":178,"time_elapsed":760240,"internal_node_id":"0.0-19.76-1.76"},{"fined":false,"trial_type":"html-keyboard-response","trial_index":178,"time_elapsed":760240,"internal_node_id":"0.0-19.76-1.76"},{"rt":null,"stimulus":"<div style=\"background-color:#6dce98\"><h1 style=\"background-color:MediumSeaGreen\" >You earned 100 coins! Well done!</h1><div style=\"background-color:#6dce98\"><h1 style=\"background-color:MediumSeaGreen\" >Only 1000 left to go!</h1><img id=\"box\" src=\"img/prizes/coins2.png\"></img><img id=\"box\" src=\"img/empty/greenopenbox.png\"></img></div>","key_press":null,"trial_type":"html-keyboard-response","trial_index":178,"time_elapsed":763253,"internal_node_id":"0.0-19.76-1.76"},{"rt":1546.2250000564381,"stimulus":"<p>Choose a box,</p>","button_pressed":1,"trial_type":"html-button-response","trial_index":179,"time_elapsed":764800,"internal_node_id":"0.0-19.77-0.77"},{"reward":100,"trial_type":"html-keyboard-response","trial_index":180,"time_elapsed":764800,"internal_node_id":"0.0-19.77-1.77"},{"penalty":1250,"trial_type":"html-keyboard-response","trial_index":180,"time_elapsed":764800,"internal_node_id":"0.0-19.77-1.77"},{"fined":false,"trial_type":"html-keyboard-response","trial_index":180,"time_elapsed":764800,"internal_node_id":"0.0-19.77-1.77"},{"rt":null,"stimulus":"<div style=\"background-color:#6dce98\"><h1 style=\"background-color:MediumSeaGreen\" >You earned 100 coins! Well done!</h1><div style=\"background-color:#6dce98\"><h1 style=\"background-color:MediumSeaGreen\" >Only 900 left to go!</h1><img id=\"box\" src=\"img/prizes/coins2.png\"></img><img id=\"box\" src=\"img/empty/greenopenbox.png\"></img></div>","key_press":null,"trial_type":"html-keyboard-response","trial_index":180,"time_elapsed":767802,"internal_node_id":"0.0-19.77-1.77"},{"rt":509.59000003058463,"stimulus":"<p>Choose a box,</p>","button_pressed":1,"trial_type":"html-button-response","trial_index":181,"time_elapsed":768312,"internal_node_id":"0.0-19.78-0.78"},{"reward":100,"trial_type":"html-keyboard-response","trial_index":182,"time_elapsed":768312,"internal_node_id":"0.0-19.78-1.78"},{"penalty":1250,"trial_type":"html-keyboard-response","trial_index":182,"time_elapsed":768312,"internal_node_id":"0.0-19.78-1.78"},{"fined":false,"trial_type":"html-keyboard-response","trial_index":182,"time_elapsed":768312,"internal_node_id":"0.0-19.78-1.78"},{"rt":null,"stimulus":"<div style=\"background-color:#6dce98\"><h1 style=\"background-color:MediumSeaGreen\" >You earned 100 coins! Well done!</h1><div style=\"background-color:#6dce98\"><h1 style=\"background-color:MediumSeaGreen\" >Only 800 left to go!</h1><img id=\"box\" src=\"img/prizes/coins2.png\"></img><img id=\"box\" src=\"img/empty/greenopenbox.png\"></img></div>","key_press":null,"trial_type":"html-keyboard-response","trial_index":182,"time_elapsed":771315,"internal_node_id":"0.0-19.78-1.78"},{"rt":1251.395000028424,"stimulus":"<p>Choose a box,</p>","button_pressed":3,"trial_type":"html-button-response","trial_index":183,"time_elapsed":772568,"internal_node_id":"0.0-19.79-0.79"},{"reward":50,"trial_type":"html-keyboard-response","trial_index":184,"time_elapsed":772568,"internal_node_id":"0.0-19.79-1.79"},{"penalty":250,"trial_type":"html-keyboard-response","trial_index":184,"time_elapsed":772568,"internal_node_id":"0.0-19.79-1.79"},{"fined":true,"trial_type":"html-keyboard-response","trial_index":184,"time_elapsed":772568,"internal_node_id":"0.0-19.79-1.79"},{"rt":null,"stimulus":"<div style=\"background-color:#ff7157\"><h1 style=\"background-color:MediumSeaGreen\">You earned 50 coins</h1><h1 h1 style=\"background-color:Tomato\">but you have recieved a fine of 250 coins</h1><h1 style=\"background-color:Tomato\">Remember, you need to keep going until you have 3000 coins!</h1><img id=\"box\" src=\"img/prizes/250.png\"></img><img id=\"box\" src=\"img/sad/redopenboxsadthumb.png\"></img></div>","key_press":null,"trial_type":"html-keyboard-response","trial_index":184,"time_elapsed":775569,"internal_node_id":"0.0-19.79-1.79"},{"rt":629.5949999475852,"stimulus":"<p>Choose a box,</p>","button_pressed":1,"trial_type":"html-button-response","trial_index":185,"time_elapsed":776200,"internal_node_id":"0.0-19.80-0.80"},{"reward":100,"trial_type":"html-keyboard-response","trial_index":186,"time_elapsed":776200,"internal_node_id":"0.0-19.80-1.80"},{"penalty":1250,"trial_type":"html-keyboard-response","trial_index":186,"time_elapsed":776200,"internal_node_id":"0.0-19.80-1.80"},{"fined":false,"trial_type":"html-keyboard-response","trial_index":186,"time_elapsed":776200,"internal_node_id":"0.0-19.80-1.80"},{"rt":null,"stimulus":"<div style=\"background-color:#6dce98\"><h1 style=\"background-color:MediumSeaGreen\" >You earned 100 coins! Well done!</h1><div style=\"background-color:#6dce98\"><h1 style=\"background-color:MediumSeaGreen\" >Only 900 left to go!</h1><img id=\"box\" src=\"img/prizes/coins2.png\"></img><img id=\"box\" src=\"img/empty/greenopenbox.png\"></img></div>","key_press":null,"trial_type":"html-keyboard-response","trial_index":186,"time_elapsed":779208,"internal_node_id":"0.0-19.80-1.80"},{"rt":686.9849999202415,"stimulus":"<p>Choose a box,</p>","button_pressed":0,"trial_type":"html-button-response","trial_index":187,"time_elapsed":779896,"internal_node_id":"0.0-19.81-0.81"},{"reward":100,"trial_type":"html-keyboard-response","trial_index":188,"time_elapsed":779896,"internal_node_id":"0.0-19.81-1.81"},{"penalty":250,"trial_type":"html-keyboard-response","trial_index":188,"time_elapsed":779896,"internal_node_id":"0.0-19.81-1.81"},{"fined":true,"trial_type":"html-keyboard-response","trial_index":188,"time_elapsed":779896,"internal_node_id":"0.0-19.81-1.81"},{"rt":null,"stimulus":"<div style=\"background-color:#ff7157\"><h1 style=\"background-color:MediumSeaGreen\">You earned 100 coins</h1><h1 h1 style=\"background-color:Tomato\">but you have recieved a fine of 250 coins</h1><h1 style=\"background-color:Tomato\">Remember, you need to keep going until you have 3000 coins!</h1><img id=\"box\" src=\"img/prizes/250.png\"></img><img id=\"box\" src=\"img/sad/blueopenboxsadthumb.png\"></img></div>","key_press":null,"trial_type":"html-keyboard-response","trial_index":188,"time_elapsed":782911,"internal_node_id":"0.0-19.81-1.81"},{"rt":520.2549999812618,"stimulus":"<p>Choose a box,</p>","button_pressed":1,"trial_type":"html-button-response","trial_index":189,"time_elapsed":783432,"internal_node_id":"0.0-19.82-0.82"},{"reward":100,"trial_type":"html-keyboard-response","trial_index":190,"time_elapsed":783432,"internal_node_id":"0.0-19.82-1.82"},{"penalty":1250,"trial_type":"html-keyboard-response","trial_index":190,"time_elapsed":783432,"internal_node_id":"0.0-19.82-1.82"},{"fined":false,"trial_type":"html-keyboard-response","trial_index":190,"time_elapsed":783432,"internal_node_id":"0.0-19.82-1.82"},{"rt":null,"stimulus":"<div style=\"background-color:#6dce98\"><h1 style=\"background-color:MediumSeaGreen\" >You earned 100 coins! Well done!</h1><div style=\"background-color:#6dce98\"><h1 style=\"background-color:MediumSeaGreen\" >Only 950 left to go!</h1><img id=\"box\" src=\"img/prizes/coins2.png\"></img><img id=\"box\" src=\"img/empty/greenopenbox.png\"></img></div>","key_press":null,"trial_type":"html-keyboard-response","trial_index":190,"time_elapsed":786434,"internal_node_id":"0.0-19.82-1.82"},{"rt":509.4550000503659,"stimulus":"<p>Choose a box,</p>","button_pressed":1,"trial_type":"html-button-response","trial_index":191,"time_elapsed":786944,"internal_node_id":"0.0-19.83-0.83"},{"reward":100,"trial_type":"html-keyboard-response","trial_index":192,"time_elapsed":786944,"internal_node_id":"0.0-19.83-1.83"},{"penalty":1250,"trial_type":"html-keyboard-response","trial_index":192,"time_elapsed":786944,"internal_node_id":"0.0-19.83-1.83"},{"fined":false,"trial_type":"html-keyboard-response","trial_index":192,"time_elapsed":786944,"internal_node_id":"0.0-19.83-1.83"},{"rt":null,"stimulus":"<div style=\"background-color:#6dce98\"><h1 style=\"background-color:MediumSeaGreen\" >You earned 100 coins! Well done!</h1><div style=\"background-color:#6dce98\"><h1 style=\"background-color:MediumSeaGreen\" >Only 850 left to go!</h1><img id=\"box\" src=\"img/prizes/coins2.png\"></img><img id=\"box\" src=\"img/empty/greenopenbox.png\"></img></div>","key_press":null,"trial_type":"html-keyboard-response","trial_index":192,"time_elapsed":789955,"internal_node_id":"0.0-19.83-1.83"},{"rt":643.8699999125674,"