[{"view_history":"[{\"page_index\":0,\"viewing_time\":3071.2950000015553},{\"page_index\":1,\"viewing_time\":5426.030000002356},{\"page_index\":2,\"viewing_time\":3203.9999999979045},{\"page_index\":3,\"viewing_time\":12850.044999999227},{\"page_index\":4,\"viewing_time\":5219.7850000084145},{\"page_index\":5,\"viewing_time\":7751.909999991767}]","rt":37523.54999999807,"trial_type":"instructions","trial_index":0,"time_elapsed":37529,"internal_node_id":"0.0-0.0"},{"rt":7104.250000003958,"responses":"{\"Q0\":\"Yes\",\"Q1\":\"Yes\",\"Q2\":\"Yes\"}","question_order":"[0,1,2]","trial_type":"survey-multi-choice","trial_index":1,"time_elapsed":44634,"internal_node_id":"0.0-1.0-0.0"},{"rt":8513.745000003837,"responses":"{\"Q0\":\"Yes\",\"Q1\":\"Yes\",\"Q2\":\"Yes\"}","question_order":"[0,1,2]","trial_type":"survey-multi-choice","trial_index":2,"time_elapsed":53154,"internal_node_id":"0.0-2.0-0.0"},{"rt":4125.23499999952,"responses":"{\"Q0\":\"602ae9e3338e8e1df07284b4\"}","trial_type":"survey-text","trial_index":3,"time_elapsed":57287,"internal_node_id":"0.0-3.0"},{"rt":3380.8699999935925,"responses":"{\"Q0\":\"Male\",\"Q1\":\"35-44\"}","question_order":"[0,1]","trial_type":"survey-multi-choice","trial_index":4,"time_elapsed":60669,"internal_node_id":"0.0-4.0"},{"rt":10417.795000001206,"responses":"{\"Q0\":\"none\"}","trial_type":"survey-text","trial_index":5,"time_elapsed":71093,"internal_node_id":"0.0-5.0"},{"view_history":"[{\"page_index\":0,\"viewing_time\":2357.045000011567}]","rt":2357.1850000007544,"trial_type":"instructions","trial_index":6,"time_elapsed":73451,"internal_node_id":"0.0-6.0"},{"rt":10307.534999999916,"responses":"{\"Interested\":2,\"Distressed\":1,\"Excited\":2,\"Upset\":1}","question_order":"[0,1,2,3]","trial_type":"survey-likert","trial_index":7,"time_elapsed":83761,"internal_node_id":"0.0-7.0"},{"rt":18642.82500000263,"responses":"{\"Strong\":0,\"Guilty\":0,\"Scared\":1,\"Hostile\":1}","question_order":"[0,1,2,3]","trial_type":"survey-likert","trial_index":8,"time_elapsed":102407,"internal_node_id":"0.0-8.0"},{"rt":16369.93000000075,"responses":"{\"Enthusiastic\":0,\"Proud\":2,\"Irritable\":2,\"Alert\":1}","question_order":"[0,1,2,3]","trial_type":"survey-likert","trial_index":9,"time_elapsed":118781,"internal_node_id":"0.0-9.0"},{"rt":9526.230000003125,"responses":"{\"Ashamed\":0,\"Inspired\":0,\"Nervous\":2,\"Determined\":1}","question_order":"[0,1,2,3]","trial_type":"survey-likert","trial_index":10,"time_elapsed":128311,"internal_node_id":"0.0-10.0"},{"rt":15827.785000001313,"responses":"{\"Attentive\":3,\"Jittery\":1,\"Active\":1,\"Afraid\":1}","question_order":"[0,1,2,3]","trial_type":"survey-likert","trial_index":11,"time_elapsed":144143,"internal_node_id":"0.0-11.0"},{"rt":22272.080000009737,"responses":"{\"Q0\":1,\"Q1\":1,\"Q2\":2,\"Q3\":2}","question_order":"[0,1,2,3]","trial_type":"survey-likert","trial_index":12,"time_elapsed":166419,"internal_node_id":"0.0-12.0"},{"rt":19622.815000009723,"responses":"{\"Q0\":0,\"Q1\":1,\"Q2\":1,\"Q3\":0}","question_order":"[0,1,2,3]","trial_type":"survey-likert","trial_index":13,"time_elapsed":186046,"internal_node_id":"0.0-13.0"},{"rt":12672.69999999553,"responses":"{\"Q0\":1,\"Q1\":1,\"Q2\":2,\"Q3\":2}","question_order":"[0,1,2,3]","trial_type":"survey-likert","trial_index":14,"time_elapsed":198723,"internal_node_id":"0.0-14.0"},{"rt":9882.78500000888,"responses":"{\"Q0\":0,\"Q1\":1,\"Q2\":1}","question_order":"[0,1,2]","trial_type":"survey-likert","trial_index":15,"time_elapsed":208609,"internal_node_id":"0.0-15.0"},{"view_history":"[{\"page_index\":0,\"viewing_time\":3396.724999998696},{\"page_index\":1,\"viewing_time\":9783.385000002454},{\"page_index\":2,\"viewing_time\":9986.864999998943}]","rt":23167.414999988978,"trial_type":"instructions","trial_index":16,"time_elapsed":231797,"internal_node_id":"0.0-16.0"},{"rt":2764.5449999981793,"stimulus":"<p>Choose a box,</p>","button_pressed":0,"trial_type":"html-button-response","trial_index":17,"time_elapsed":234562,"internal_node_id":"0.0-17.0-0.0"},{"reward":100,"trial_type":"html-keyboard-response","trial_index":18,"time_elapsed":234563,"internal_node_id":"0.0-17.0-1.0"},{"penalty":250,"trial_type":"html-keyboard-response","trial_index":18,"time_elapsed":234563,"internal_node_id":"0.0-17.0-1.0"},{"fined":false,"trial_type":"html-keyboard-response","trial_index":18,"time_elapsed":234563,"internal_node_id":"0.0-17.0-1.0"},{"rt":null,"stimulus":"<div style=\"background-color:#6dce98\"><h1 style=\"background-color:MediumSeaGreen\" >You earned 100 coins! Well done!</h1><div style=\"background-color:#6dce98\"><h1 style=\"background-color:MediumSeaGreen\" >Only 1400 left to go!</h1><img id=\"box\" src=\"img/prizes/coins2.png\"></img><img id=\"box\" src=\"img/empty/blueopenbox.png\"></img></div>","key_press":null,"trial_type":"html-keyboard-response","trial_index":18,"time_elapsed":237564,"internal_node_id":"0.0-17.0-1.0"},{"rt":3561.074999990524,"stimulus":"<p>Choose a box,</p>","button_pressed":2,"trial_type":"html-button-response","trial_index":19,"time_elapsed":241127,"internal_node_id":"0.0-17.0-0.1"},{"reward":50,"trial_type":"html-keyboard-response","trial_index":20,"time_elapsed":241127,"internal_node_id":"0.0-17.0-1.1"},{"penalty":50,"trial_type":"html-keyboard-response","trial_index":20,"time_elapsed":241127,"internal_node_id":"0.0-17.0-1.1"},{"fined":true,"trial_type":"html-keyboard-response","trial_index":20,"time_elapsed":241127,"internal_node_id":"0.0-17.0-1.1"},{"rt":null,"stimulus":"<div style=\"background-color:#ff7157\"><h1 style=\"background-color:MediumSeaGreen\">You earned 50 coins</h1><h1 h1 style=\"background-color:Tomato\">but you have recieved a fine of 50 coins</h1><h1 style=\"background-color:Tomato\">Remember, you need to keep going until you have 3000 coins!</h1><img id=\"box\" src=\"img/prizes/50.png\"></img><img id=\"box\" src=\"img/sad/purpleopenboxsadthumb.png\"></img></div>","key_press":null,"trial_type":"html-keyboard-response","trial_index":20,"time_elapsed":244131,"internal_node_id":"0.0-17.0-1.1"},{"rt":1467.9500000056578,"stimulus":"<p>Choose a box,</p>","button_pressed":2,"trial_type":"html-button-response","trial_index":21,"time_elapsed":245599,"internal_node_id":"0.0-17.0-0.2"},{"reward":50,"trial_type":"html-keyboard-response","trial_index":22,"time_elapsed":245599,"internal_node_id":"0.0-17.0-1.2"},{"penalty":50,"trial_type":"html-keyboard-response","trial_index":22,"time_elapsed":245600,"internal_node_id":"0.0-17.0-1.2"},{"fined":false,"trial_type":"html-keyboard-response","trial_index":22,"time_elapsed":245600,"internal_node_id":"0.0-17.0-1.2"},{"rt":null,"stimulus":"<div style=\"background-color:#6dce98\"><h1 style=\"background-color:MediumSeaGreen\" >You earned 50 coins! Well done!</h1><div style=\"background-color:#6dce98\"><h1 style=\"background-color:MediumSeaGreen\" >Only 1350 left to go!</h1><img id=\"box\" src=\"img/prizes/coins.png\"></img><img id=\"box\" src=\"img/empty/purpleopenbox.png\"></img></div>","key_press":null,"trial_type":"html-keyboard-response","trial_index":22,"time_elapsed":248601,"internal_node_id":"0.0-17.0-1.2"},{"view_history":"[{\"page_index\":0,\"viewing_time\":2355.0799999939045}]","rt":2355.2700000000186,"trial_type":"instructions","trial_index":23,"time_elapsed":250957,"internal_node_id":"0.0-18.0"},{"rt":2740.54499999329,"stimulus":"<p>Choose a box,</p>","button_pressed":0,"trial_type":"html-button-response","trial_index":24,"time_elapsed":253698,"internal_node_id":"0.0-19.0-0.0"},{"reward":100,"trial_type":"html-keyboard-response","trial_index":25,"time_elapsed":253698,"internal_node_id":"0.0-19.0-1.0"},{"penalty":250,"trial_type":"html-keyboard-response","trial_index":25,"time_elapsed":253698,"internal_node_id":"0.0-19.0-1.0"},{"fined":true,"trial_type":"html-keyboard-response","trial_index":25,"time_elapsed":253698,"internal_node_id":"0.0-19.0-1.0"},{"rt":null,"stimulus":"<div style=\"background-color:#ff7157\"><h1 style=\"background-color:MediumSeaGreen\">You earned 100 coins</h1><h1 h1 style=\"background-color:Tomato\">but you have recieved a fine of 250 coins</h1><h1 style=\"background-color:Tomato\">Remember, you need to keep going until you have 3000 coins!</h1><img id=\"box\" src=\"img/prizes/250.png\"></img><img id=\"box\" src=\"img/sad/blueopenboxsadthumb.png\"></img></div>","key_press":null,"trial_type":"html-keyboard-response","trial_index":25,"time_elapsed":256700,"internal_node_id":"0.0-19.0-1.0"},{"rt":1399.8549999960233,"stimulus":"<p>Choose a box,</p>","button_pressed":3,"trial_type":"html-button-response","trial_index":26,"time_elapsed":258100,"internal_node_id":"0.0-19.1-0.1"},{"reward":50,"trial_type":"html-keyboard-response","trial_index":27,"time_elapsed":258100,"internal_node_id":"0.0-19.1-1.1"},{"penalty":250,"trial_type":"html-keyboard-response","trial_index":27,"time_elapsed":258101,"internal_node_id":"0.0-19.1-1.1"},{"fined":false,"trial_type":"html-keyboard-response","trial_index":27,"time_elapsed":258101,"internal_node_id":"0.0-19.1-1.1"},{"rt":null,"stimulus":"<div style=\"background-color:#6dce98\"><h1 style=\"background-color:MediumSeaGreen\" >You earned 50 coins! Well done!</h1><div style=\"background-color:#6dce98\"><h1 style=\"background-color:MediumSeaGreen\" >Only 1600 left to go!</h1><img id=\"box\" src=\"img/prizes/coins.png\"></img><img id=\"box\" src=\"img/empty/redopenbox.png\"></img></div>","key_press":null,"trial_type":"html-keyboard-response","trial_index":27,"time_elapsed":261103,"internal_node_id":"0.0-19.1-1.1"},{"rt":581.5100000036182,"stimulus":"<p>Choose a box,</p>","button_pressed":3,"trial_type":"html-button-response","trial_index":28,"time_elapsed":261685,"internal_node_id":"0.0-19.2-0.2"},{"reward":50,"trial_type":"html-keyboard-response","trial_index":29,"time_elapsed":261685,"internal_node_id":"0.0-19.2-1.2"},{"penalty":250,"trial_type":"html-keyboard-response","trial_index":29,"time_elapsed":261685,"internal_node_id":"0.0-19.2-1.2"},{"fined":false,"trial_type":"html-keyboard-response","trial_index":29,"time_elapsed":261685,"internal_node_id":"0.0-19.2-1.2"},{"rt":null,"stimulus":"<div style=\"background-color:#6dce98\"><h1 style=\"background-color:MediumSeaGreen\" >You earned 50 coins! Well done!</h1><div style=\"background-color:#6dce98\"><h1 style=\"background-color:MediumSeaGreen\" >Only 1550 left to go!</h1><img id=\"box\" src=\"img/prizes/coins.png\"></img><img id=\"box\" src=\"img/empty/redopenbox.png\"></img></div>","key_press":null,"trial_type":"html-keyboard-response","trial_index":29,"time_elapsed":264687,"internal_node_id":"0.0-19.2-1.2"},{"rt":566.4200000028359,"stimulus":"<p>Choose a box,</p>","button_pressed":2,"trial_type":"html-button-response","trial_index":30,"time_elapsed":265254,"internal_node_id":"0.0-19.3-0.3"},{"reward":50,"trial_type":"html-keyboard-response","trial_index":31,"time_elapsed":265254,"internal_node_id":"0.0-19.3-1.3"},{"penalty":50,"trial_type":"html-keyboard-response","trial_index":31,"time_elapsed":265254,"internal_node_id":"0.0-19.3-1.3"},{"fined":false,"trial_type":"html-keyboard-response","trial_index":31,"time_elapsed":265254,"internal_node_id":"0.0-19.3-1.3"},{"rt":null,"stimulus":"<div style=\"background-color:#6dce98\"><h1 style=\"background-color:MediumSeaGreen\" >You earned 50 coins! Well done!</h1><div style=\"background-color:#6dce98\"><h1 style=\"background-color:MediumSeaGreen\" >Only 1500 left to go!</h1><img id=\"box\" src=\"img/prizes/coins.png\"></img><img id=\"box\" src=\"img/empty/purpleopenbox.png\"></img></div>","key_press":null,"trial_type":"html-keyboard-response","trial_index":31,"time_elapsed":268256,"internal_node_id":"0.0-19.3-1.3"},{"rt":743.7000000063563,"stimulus":"<p>Choose a box,</p>","button_pressed":2,"trial_type":"html-button-response","trial_index":32,"time_elapsed":269001,"internal_node_id":"0.0-19.4-0.4"},{"reward":50,"trial_type":"html-keyboard-response","trial_index":33,"time_elapsed":269001,"internal_node_id":"0.0-19.4-1.4"},{"penalty":50,"trial_type":"html-keyboard-response","trial_index":33,"time_elapsed":269001,"internal_node_id":"0.0-19.4-1.4"},{"fined":true,"trial_type":"html-keyboard-response","trial_index":33,"time_elapsed":269001,"internal_node_id":"0.0-19.4-1.4"},{"rt":null,"stimulus":"<div style=\"background-color:#ff7157\"><h1 style=\"background-color:MediumSeaGreen\">You earned 50 coins</h1><h1 h1 style=\"background-color:Tomato\">but you have recieved a fine of 50 coins</h1><h1 style=\"background-color:Tomato\">Remember, you need to keep going until you have 3000 coins!</h1><img id=\"box\" src=\"img/prizes/50.png\"></img><img id=\"box\" src=\"img/sad/purpleopenboxsadthumb.png\"></img></div>","key_press":null,"trial_type":"html-keyboard-response","trial_index":33,"time_elapsed":272003,"internal_node_id":"0.0-19.4-1.4"},{"rt":1156.4349999971455,"stimulus":"<p>Choose a box,</p>","button_pressed":1,"trial_type":"html-button-response","trial_index":34,"time_elapsed":273160,"internal_node_id":"0.0-19.5-0.5"},{"reward":100,"trial_type":"html-keyboard-response","trial_index":35,"time_elapsed":273160,"internal_node_id":"0.0-19.5-1.5"},{"penalty":1250,"trial_type":"html-keyboard-response","trial_index":35,"time_elapsed":273160,"internal_node_id":"0.0-19.5-1.5"},{"fined":true,"trial_type":"html-keyboard-response","trial_index":35,"time_elapsed":273160,"internal_node_id":"0.0-19.5-1.5"},{"rt":null,"stimulus":"<div style=\"background-color:#ff7157\"><h1 style=\"background-color:MediumSeaGreen\">You earned 100 coins</h1><h1 h1 style=\"background-color:Tomato\">but you have recieved a fine of 1250 coins</h1><h1 style=\"background-color:Tomato\">Remember, you need to keep going until you have 3000 coins!</h1><img id=\"box\" src=\"img/prizes/1250.png\"></img><img id=\"box\" src=\"img/sad/greenopenboxsadthumb.png\"></img></div>","key_press":null,"trial_type":"html-keyboard-response","trial_index":35,"time_elapsed":276161,"internal_node_id":"0.0-19.5-1.5"},{"rt":1147.9350000008708,"stimulus":"<p>Choose a box,</p>","button_pressed":1,"trial_type":"html-button-response","trial_index":36,"time_elapsed":277310,"internal_node_id":"0.0-19.6-0.6"},{"reward":100,"trial_type":"html-keyboard-response","trial_index":37,"time_elapsed":277310,"internal_node_id":"0.0-19.6-1.6"},{"penalty":1250,"trial_type":"html-keyboard-response","trial_index":37,"time_elapsed":277310,"internal_node_id":"0.0-19.6-1.6"},{"fined":false,"trial_type":"html-keyboard-response","trial_index":37,"time_elapsed":277310,"internal_node_id":"0.0-19.6-1.6"},{"rt":null,"stimulus":"<div style=\"background-color:#6dce98\"><h1 style=\"background-color:MediumSeaGreen\" >You earned 100 coins! Well done!</h1><div style=\"background-color:#6dce98\"><h1 style=\"background-color:MediumSeaGreen\" >Only 2550 left to go!</h1><img id=\"box\" src=\"img/prizes/coins2.png\"></img><img id=\"box\" src=\"img/empty/greenopenbox.png\"></img></div>","key_press":null,"trial_type":"html-keyboard-response","trial_index":37,"time_elapsed":280312,"internal_node_id":"0.0-19.6-1.6"},{"rt":1500.3900000010617,"stimulus":"<p>Choose a box,</p>","button_pressed":0,"trial_type":"html-button-response","trial_index":38,"time_elapsed":281813,"internal_node_id":"0.0-19.7-0.7"},{"reward":100,"trial_type":"html-keyboard-response","trial_index":39,"time_elapsed":281813,"internal_node_id":"0.0-19.7-1.7"},{"penalty":250,"trial_type":"html-keyboard-response","trial_index":39,"time_elapsed":281813,"internal_node_id":"0.0-19.7-1.7"},{"fined":true,"trial_type":"html-keyboard-response","trial_index":39,"time_elapsed":281813,"internal_node_id":"0.0-19.7-1.7"},{"rt":null,"stimulus":"<div style=\"background-color:#ff7157\"><h1 style=\"background-color:MediumSeaGreen\">You earned 100 coins</h1><h1 h1 style=\"background-color:Tomato\">but you have recieved a fine of 250 coins</h1><h1 style=\"background-color:Tomato\">Remember, you need to keep going until you have 3000 coins!</h1><img id=\"box\" src=\"img/prizes/250.png\"></img><img id=\"box\" src=\"img/sad/blueopenboxsadthumb.png\"></img></div>","key_press":null,"trial_type":"html-keyboard-response","trial_index":39,"time_elapsed":284815,"internal_node_id":"0.0-19.7-1.7"},{"rt":597.8199999954086,"stimulus":"<p>Choose a box,</p>","button_pressed":2,"trial_type":"html-button-response","trial_index":40,"time_elapsed":285413,"internal_node_id":"0.0-19.8-0.8"},{"reward":50,"trial_type":"html-keyboard-response","trial_index":41,"time_elapsed":285413,"internal_node_id":"0.0-19.8-1.8"},{"penalty":50,"trial_type":"html-keyboard-response","trial_index":41,"time_elapsed":285413,"internal_node_id":"0.0-19.8-1.8"},{"fined":false,"trial_type":"html-keyboard-response","trial_index":41,"time_elapsed":285413,"internal_node_id":"0.0-19.8-1.8"},{"rt":null,"stimulus":"<div style=\"background-color:#6dce98\"><h1 style=\"background-color:MediumSeaGreen\" >You earned 50 coins! Well done!</h1><div style=\"background-color:#6dce98\"><h1 style=\"background-color:MediumSeaGreen\" >Only 2650 left to go!</h1><img id=\"box\" src=\"img/prizes/coins.png\"></img><img id=\"box\" src=\"img/empty/purpleopenbox.png\"></img></div>","key_press":null,"trial_type":"html-keyboard-response","trial_index":41,"time_elapsed":288415,"internal_node_id":"0.0-19.8-1.8"},{"rt":2043.004999999539,"stimulus":"<p>Choose a box,</p>","button_pressed":2,"trial_type":"html-button-response","trial_index":42,"time_elapsed":290458,"internal_node_id":"0.0-19.9-0.9"},{"reward":50,"trial_type":"html-keyboard-response","trial_index":43,"time_elapsed":290459,"internal_node_id":"0.0-19.9-1.9"},{"penalty":50,"trial_type":"html-keyboard-response","trial_index":43,"time_elapsed":290459,"internal_node_id":"0.0-19.9-1.9"},{"fined":false,"trial_type":"html-keyboard-response","trial_index":43,"time_elapsed":290459,"internal_node_id":"0.0-19.9-1.9"},{"rt":null,"stimulus":"<div style=\"background-color:#6dce98\"><h1 style=\"background-color:MediumSeaGreen\" >You earned 50 coins! Well done!</h1><div style=\"background-color:#6dce98\"><h1 style=\"background-color:MediumSeaGreen\" >Only 2600 left to go!</h1><img id=\"box\" src=\"img/prizes/coins.png\"></img><img id=\"box\" src=\"img/empty/purpleopenbox.png\"></img></div>","key_press":null,"trial_type":"html-keyboard-response","trial_index":43,"time_elapsed":293461,"internal_node_id":"0.0-19.9-1.9"},{"rt":1341.2200000020675,"stimulus":"<p>Choose a box,</p>","button_pressed":3,"trial_type":"html-button-response","trial_index":44,"time_elapsed":294803,"internal_node_id":"0.0-19.10-0.10"},{"reward":50,"trial_type":"html-keyboard-response","trial_index":45,"time_elapsed":294803,"internal_node_id":"0.0-19.10-1.10"},{"penalty":250,"trial_type":"html-keyboard-response","trial_index":45,"time_elapsed":294803,"internal_node_id":"0.0-19.10-1.10"},{"fined":false,"trial_type":"html-keyboard-response","trial_index":45,"time_elapsed":294803,"internal_node_id":"0.0-19.10-1.10"},{"rt":null,"stimulus":"<div style=\"background-color:#6dce98\"><h1 style=\"background-color:MediumSeaGreen\" >You earned 50 coins! Well done!</h1><div style=\"background-color:#6dce98\"><h1 style=\"background-color:MediumSeaGreen\" >Only 2550 left to go!</h1><img id=\"box\" src=\"img/prizes/coins.png\"></img><img id=\"box\" src=\"img/empty/redopenbox.png\"></img></div>","key_press":null,"trial_type":"html-keyboard-response","trial_index":45,"time_elapsed":297806,"internal_node_id":"0.0-19.10-1.10"},{"rt":604.0650000068126,"stimulus":"<p>Choose a box,</p>","button_pressed":1,"trial_type":"html-button-response","trial_index":46,"time_elapsed":298411,"internal_node_id":"0.0-19.11-0.11"},{"reward":100,"trial_type":"html-keyboard-response","trial_index":47,"time_elapsed":298411,"internal_node_id":"0.0-19.11-1.11"},{"penalty":1250,"trial_type":"html-keyboard-response","trial_index":47,"time_elapsed":298411,"internal_node_id":"0.0-19.11-1.11"},{"fined":false,"trial_type":"html-keyboard-response","trial_index":47,"time_elapsed":298411,"internal_node_id":"0.0-19.11-1.11"},{"rt":null,"stimulus":"<div style=\"background-color:#6dce98\"><h1 style=\"background-color:MediumSeaGreen\" >You earned 100 coins! Well done!</h1><div style=\"background-color:#6dce98\"><h1 style=\"background-color:MediumSeaGreen\" >Only 2450 left to go!</h1><img id=\"box\" src=\"img/prizes/coins2.png\"></img><img id=\"box\" src=\"img/empty/greenopenbox.png\"></img></div>","key_press":null,"trial_type":"html-keyboard-response","trial_index":47,"time_elapsed":301413,"internal_node_id":"0.0-19.11-1.11"},{"rt":901.1049999971874,"stimulus":"<p>Choose a box,</p>","button_pressed":1,"trial_type":"html-button-response","trial_index":48,"time_elapsed":302315,"internal_node_id":"0.0-19.12-0.12"},{"reward":100,"trial_type":"html-keyboard-response","trial_index":49,"time_elapsed":302315,"internal_node_id":"0.0-19.12-1.12"},{"penalty":1250,"trial_type":"html-keyboard-response","trial_index":49,"time_elapsed":302315,"internal_node_id":"0.0-19.12-1.12"},{"fined":false,"trial_type":"html-keyboard-response","trial_index":49,"time_elapsed":302315,"internal_node_id":"0.0-19.12-1.12"},{"rt":null,"stimulus":"<div style=\"background-color:#6dce98\"><h1 style=\"background-color:MediumSeaGreen\" >You earned 100 coins! Well done!</h1><div style=\"background-color:#6dce98\"><h1 style=\"background-color:MediumSeaGreen\" >Only 2350 left to go!</h1><img id=\"box\" src=\"img/prizes/coins2.png\"></img><img id=\"box\" src=\"img/empty/greenopenbox.png\"></img></div>","key_press":null,"trial_type":"html-keyboard-response","trial_index":49,"time_elapsed":305317,"internal_node_id":"0.0-19.12-1.12"},{"rt":1301.804999995511,"stimulus":"<p>Choose a box,</p>","button_pressed":0,"trial_type":"html-button-response","trial_index":50,"time_elapsed":306620,"internal_node_id":"0.0-19.13-0.13"},{"reward":100,"trial_type":"html-keyboard-response","trial_index":51,"time_elapsed":306620,"internal_node_id":"0.0-19.13-1.13"},{"penalty":250,"trial_type":"html-keyboard-response","trial_index":51,"time_elapsed":306620,"internal_node_id":"0.0-19.13-1.13"},{"fined":true,"trial_type":"html-keyboard-response","trial_index":51,"time_elapsed":306620,"internal_node_id":"0.0-19.13-1.13"},{"rt":null,"stimulus":"<div style=\"background-color:#ff7157\"><h1 style=\"background-color:MediumSeaGreen\">You earned 100 coins</h1><h1 h1 style=\"background-color:Tomato\">but you have recieved a fine of 250 coins</h1><h1 style=\"background-color:Tomato\">Remember, you need to keep going until you have 3000 coins!</h1><img id=\"box\" src=\"img/prizes/250.png\"></img><img id=\"box\" src=\"img/sad/blueopenboxsadthumb.png\"></img></div>","key_press":null,"trial_type":"html-keyboard-response","trial_index":51,"time_elapsed":309622,"internal_node_id":"0.0-19.13-1.13"},{"rt":960.0400000053924,"stimulus":"<p>Choose a box,</p>","button_pressed":2,"trial_type":"html-button-response","trial_index":52,"time_elapsed":310583,"internal_node_id":"0.0-19.14-0.14"},{"reward":50,"trial_type":"html-keyboard-response","trial_index":53,"time_elapsed":310583,"internal_node_id":"0.0-19.14-1.14"},{"penalty":50,"trial_type":"html-keyboard-response","trial_index":53,"time_elapsed":310583,"internal_node_id":"0.0-19.14-1.14"},{"fined":true,"trial_type":"html-keyboard-response","trial_index":53,"time_elapsed":310583,"internal_node_id":"0.0-19.14-1.14"},{"rt":null,"stimulus":"<div style=\"background-color:#ff7157\"><h1 style=\"background-color:MediumSeaGreen\">You earned 50 coins</h1><h1 h1 style=\"background-color:Tomato\">but you have recieved a fine of 50 coins</h1><h1 style=\"background-color:Tomato\">Remember, you need to keep going until you have 3000 coins!</h1><img id=\"box\" src=\"img/prizes/50.png\"></img><img id=\"box\" src=\"img/sad/purpleopenboxsadthumb.png\"></img></div>","key_press":null,"trial_type":"html-keyboard-response","trial_index":53,"time_elapsed":313586,"internal_node_id":"0.0-19.14-1.14"},{"rt":826.1749999946915,"stimulus":"<p>Choose a box,</p>","button_pressed":3,"trial_type":"html-button-response","trial_index":54,"time_elapsed":314413,"internal_node_id":"0.0-19.15-0.15"},{"reward":50,"trial_type":"html-keyboard-response","trial_index":55,"time_elapsed":314414,"internal_node_id":"0.0-19.15-1.15"},{"penalty":250,"trial_type":"html-keyboard-response","trial_index":55,"time_elapsed":314414,"internal_node_id":"0.0-19.15-1.15"},{"fined":false,"trial_type":"html-keyboard-response","trial_index":55,"time_elapsed":314414,"internal_node_id":"0.0-19.15-1.15"},{"rt":null,"stimulus":"<div style=\"background-color:#6dce98\"><h1 style=\"background-color:MediumSeaGreen\" >You earned 50 coins! Well done!</h1><div style=\"background-color:#6dce98\"><h1 style=\"background-color:MediumSeaGreen\" >Only 2450 left to go!</h1><img id=\"box\" src=\"img/prizes/coins.png\"></img><img id=\"box\" src=\"img/empty/redopenbox.png\"></img></div>","key_press":null,"trial_type":"html-keyboard-response","trial_index":55,"time_elapsed":317415,"internal_node_id":"0.0-19.15-1.15"},{"rt":1050.8350000018254,"stimulus":"<p>Choose a box,</p>","button_pressed":1,"trial_type":"html-button-response","trial_index":56,"time_elapsed":318467,"internal_node_id":"0.0-19.16-0.16"},{"reward":100,"trial_type":"html-keyboard-response","trial_index":57,"time_elapsed":318467,"internal_node_id":"0.0-19.16-1.16"},{"penalty":1250,"trial_type":"html-keyboard-response","trial_index":57,"time_elapsed":318467,"internal_node_id":"0.0-19.16-1.16"},{"fined":false,"trial_type":"html-keyboard-response","trial_index":57,"time_elapsed":318467,"internal_node_id":"0.0-19.16-1.16"},{"rt":null,"stimulus":"<div style=\"background-color:#6dce98\"><h1 style=\"background-color:MediumSeaGreen\" >You earned 100 coins! Well done!</h1><div style=\"background-color:#6dce98\"><h1 style=\"background-color:MediumSeaGreen\" >Only 2350 left to go!</h1><img id=\"box\" src=\"img/prizes/coins2.png\"></img><img id=\"box\" src=\"img/empty/greenopenbox.png\"></img></div>","key_press":null,"trial_type":"html-keyboard-response","trial_index":57,"time_elapsed":321469,"internal_node_id":"0.0-19.16-1.16"},{"rt":956.7200000019511,"stimulus":"<p>Choose a box,</p>","button_pressed":2,"trial_type":"html-button-response","trial_index":58,"time_elapsed":322427,"internal_node_id":"0.0-19.17-0.17"},{"reward":50,"trial_type":"html-keyboard-response","trial_index":59,"time_elapsed":322427,"internal_node_id":"0.0-19.17-1.17"},{"penalty":50,"trial_type":"html-keyboard-response","trial_index":59,"time_elapsed":322427,"internal_node_id":"0.0-19.17-1.17"},{"fined":false,"trial_type":"html-keyboard-response","trial_index":59,"time_elapsed":322427,"internal_node_id":"0.0-19.17-1.17"},{"rt":null,"stimulus":"<div style=\"background-color:#6dce98\"><h1 style=\"background-color:MediumSeaGreen\" >You earned 50 coins! Well done!</h1><div style=\"background-color:#6dce98\"><h1 style=\"background-color:MediumSeaGreen\" >Only 2300 left to go!</h1><img id=\"box\" src=\"img/prizes/coins.png\"></img><img id=\"box\" src=\"img/empty/purpleopenbox.png\"></img></div>","key_press":null,"trial_type":"html-keyboard-response","trial_index":59,"time_elapsed":325428,"internal_node_id":"0.0-19.17-1.17"},{"rt":751.9450000108918,"stimulus":"<p>Choose a box,</p>","button_pressed":2,"trial_type":"html-button-response","trial_index":60,"time_elapsed":326181,"internal_node_id":"0.0-19.18-0.18"},{"reward":50,"trial_type":"html-keyboard-response","trial_index":61,"time_elapsed":326181,"internal_node_id":"0.0-19.18-1.18"},{"penalty":50,"trial_type":"html-keyboard-response","trial_index":61,"time_elapsed":326181,"internal_node_id":"0.0-19.18-1.18"},{"fined":false,"trial_type":"html-keyboard-response","trial_index":61,"time_elapsed":326181,"internal_node_id":"0.0-19.18-1.18"},{"rt":null,"stimulus":"<div style=\"background-color:#6dce98\"><h1 style=\"background-color:MediumSeaGreen\" >You earned 50 coins! Well done!</h1><div style=\"background-color:#6dce98\"><h1 style=\"background-color:MediumSeaGreen\" >Only 2250 left to go!</h1><img id=\"box\" src=\"img/prizes/coins.png\"></img><img id=\"box\" src=\"img/empty/purpleopenbox.png\"></img></div>","key_press":null,"trial_type":"html-keyboard-response","trial_index":61,"time_elapsed":329183,"internal_node_id":"0.0-19.18-1.18"},{"rt":577.6850000111153,"stimulus":"<p>Choose a box,</p>","button_pressed":0,"trial_type":"html-button-response","trial_index":62,"time_elapsed":329761,"internal_node_id":"0.0-19.19-0.19"},{"reward":100,"trial_type":"html-keyboard-response","trial_index":63,"time_elapsed":329761,"internal_node_id":"0.0-19.19-1.19"},{"penalty":250,"trial_type":"html-keyboard-response","trial_index":63,"time_elapsed":329761,"internal_node_id":"0.0-19.19-1.19"},{"fined":true,"trial_type":"html-keyboard-response","trial_index":63,"time_elapsed":329761,"internal_node_id":"0.0-19.19-1.19"},{"rt":null,"stimulus":"<div style=\"background-color:#ff7157\"><h1 style=\"background-color:MediumSeaGreen\">You earned 100 coins</h1><h1 h1 style=\"background-color:Tomato\">but you have recieved a fine of 250 coins</h1><h1 style=\"background-color:Tomato\">Remember, you need to keep going until you have 3000 coins!</h1><img id=\"box\" src=\"img/prizes/250.png\"></img><img id=\"box\" src=\"img/sad/blueopenboxsadthumb.png\"></img></div>","key_press":null,"trial_type":"html-keyboard-response","trial_index":63,"time_elapsed":332763,"internal_node_id":"0.0-19.19-1.19"},{"rt":751.5149999962887,"stimulus":"<p>Choose a box,</p>","button_pressed":2,"trial_type":"html-button-response","trial_index":64,"time_elapsed":333515,"internal_node_id":"0.0-19.20-0.20"},{"reward":50,"trial_type":"html-keyboard-response","trial_index":65,"time_elapsed":333515,"internal_node_id":"0.0-19.20-1.20"},{"penalty":50,"trial_type":"html-keyboard-response","trial_index":65,"time_elapsed":333515,"internal_node_id":"0.0-19.20-1.20"},{"fined":true,"trial_type":"html-keyboard-response","trial_index":65,"time_elapsed":333515,"internal_node_id":"0.0-19.20-1.20"},{"rt":null,"stimulus":"<div style=\"background-color:#ff7157\"><h1 style=\"background-color:MediumSeaGreen\">You earned 50 coins</h1><h1 h1 style=\"background-color:Tomato\">but you have recieved a fine of 50 coins</h1><h1 style=\"background-color:Tomato\">Remember, you need to keep going until you have 3000 coins!</h1><img id=\"box\" src=\"img/prizes/50.png\"></img><img id=\"box\" src=\"img/sad/purpleopenboxsadthumb.png\"></img></div>","key_press":null,"trial_type":"html-keyboard-response","trial_index":65,"time_elapsed":336517,"internal_node_id":"0.0-19.20-1.20"},{"rt":325.2700000011828,"stimulus":"<p>Choose a box,</p>","button_pressed":2,"trial_type":"html-button-response","trial_index":66,"time_elapsed":336844,"internal_node_id":"0.0-19.21-0.21"},{"reward":50,"trial_type":"html-keyboard-response","trial_index":67,"time_elapsed":336844,"internal_node_id":"0.0-19.21-1.21"},{"penalty":50,"trial_type":"html-keyboard-response","trial_index":67,"time_elapsed":336844,"internal_node_id":"0.0-19.21-1.21"},{"fined":true,"trial_type":"html-keyboard-response","trial_index":67,"time_elapsed":336844,"internal_node_id":"0.0-19.21-1.21"},{"rt":null,"stimulus":"<div style=\"background-color:#ff7157\"><h1 style=\"background-color:MediumSeaGreen\">You earned 50 coins</h1><h1 h1 style=\"background-color:Tomato\">but you have recieved a fine of 50 coins</h1><h1 style=\"background-color:Tomato\">Remember, you need to keep going until you have 3000 coins!</h1><img id=\"box\" src=\"img/prizes/50.png\"></img><img id=\"box\" src=\"img/sad/purpleopenboxsadthumb.png\"></img></div>","key_press":null,"trial_type":"html-keyboard-response","trial_index":67,"time_elapsed":339846,"internal_node_id":"0.0-19.21-1.21"},{"rt":499.85999999626074,"stimulus":"<p>Choose a box,</p>","button_pressed":1,"trial_type":"html-button-response","trial_index":68,"time_elapsed":340347,"internal_node_id":"0.0-19.22-0.22"},{"reward":100,"trial_type":"html-keyboard-response","trial_index":69,"time_elapsed":340347,"internal_node_id":"0.0-19.22-1.22"},{"penalty":1250,"trial_type":"html-keyboard-response","trial_index":69,"time_elapsed":340347,"internal_node_id":"0.0-19.22-1.22"},{"fined":false,"trial_type":"html-keyboard-response","trial_index":69,"time_elapsed":340347,"internal_node_id":"0.0-19.22-1.22"},{"rt":null,"stimulus":"<div style=\"background-color:#6dce98\"><h1 style=\"background-color:MediumSeaGreen\" >You earned 100 coins! Well done!</h1><div style=\"background-color:#6dce98\"><h1 style=\"background-color:MediumSeaGreen\" >Only 2300 left to go!</h1><img id=\"box\" src=\"img/prizes/coins2.png\"></img><img id=\"box\" src=\"img/empty/greenopenbox.png\"></img></div>","key_press":null,"trial_type":"html-keyboard-response","trial_index":69,"time_elapsed":343347,"internal_node_id":"0.0-19.22-1.22"},{"rt":711.0249999968801,"stimulus":"<p>Choose a box,</p>","button_pressed":1,"trial_type":"html-button-response","trial_index":70,"time_elapsed":344059,"internal_node_id":"0.0-19.23-0.23"},{"reward":100,"trial_type":"html-keyboard-response","trial_index":71,"time_elapsed":344059,"internal_node_id":"0.0-19.23-1.23"},{"penalty":1250,"trial_type":"html-keyboard-response","trial_index":71,"time_elapsed":344059,"internal_node_id":"0.0-19.23-1.23"},{"fined":true,"trial_type":"html-keyboard-response","trial_index":71,"time_elapsed":344059,"internal_node_id":"0.0-19.23-1.23"},{"rt":null,"stimulus":"<div style=\"background-color:#ff7157\"><h1 style=\"background-color:MediumSeaGreen\">You earned 100 coins</h1><h1 h1 style=\"background-color:Tomato\">but you have recieved a fine of 1250 coins</h1><h1 style=\"background-color:Tomato\">Remember, you need to keep going until you have 3000 coins!</h1><img id=\"box\" src=\"img/prizes/1250.png\"></img><img id=\"box\" src=\"img/sad/greenopenboxsadthumb.png\"></img></div>","key_press":null,"trial_type":"html-keyboard-response","trial_index":71,"time_elapsed":347060,"internal_node_id":"0.0-19.23-1.23"},{"rt":589.7550000081537,"stimulus":"<p>Choose a box,</p>","button_pressed":3,"trial_type":"html-button-response","trial_index":72,"time_elapsed":347650,"internal_node_id":"0.0-19.24-0.24"},{"reward":50,"trial_type":"html-keyboard-response","trial_index":73,"time_elapsed":347650,"internal_node_id":"0.0-19.24-1.24"},{"penalty":250,"trial_type":"html-keyboard-response","trial_index":73,"time_elapsed":347650,"internal_node_id":"0.0-19.24-1.24"},{"fined":false,"trial_type":"html-keyboard-response","trial_index":73,"time_elapsed":347650,"internal_node_id":"0.0-19.24-1.24"},{"rt":null,"stimulus":"<div style=\"background-color:#6dce98\"><h1 style=\"background-color:MediumSeaGreen\" >You earned 50 coins! Well done!</h1><div style=\"background-color:#6dce98\"><h1 style=\"background-color:MediumSeaGreen\" >Only 3400 left to go!</h1><img id=\"box\" src=\"img/prizes/coins.png\"></img><img id=\"box\" src=\"img/empty/redopenbox.png\"></img></div>","key_press":null,"trial_type":"html-keyboard-response","trial_index":73,"time_elapsed":350653,"internal_node_id":"0.0-19.24-1.24"},{"rt":319.0150000009453,"stimulus":"<p>Choose a box,</p>","button_pressed":0,"trial_type":"html-button-response","trial_index":74,"time_elapsed":350973,"internal_node_id":"0.0-19.25-0.25"},{"reward":100,"trial_type":"html-keyboard-response","trial_index":75,"time_elapsed":350973,"internal_node_id":"0.0-19.25-1.25"},{"penalty":250,"trial_type":"html-keyboard-response","trial_index":75,"time_elapsed":350973,"internal_node_id":"0.0-19.25-1.25"},{"fined":true,"trial_type":"html-keyboard-response","trial_index":75,"time_elapsed":350973,"internal_node_id":"0.0-19.25-1.25"},{"rt":null,"stimulus":"<div style=\"background-color:#ff7157\"><h1 style=\"background-color:MediumSeaGreen\">You earned 100 coins</h1><h1 h1 style=\"background-color:Tomato\">but you have recieved a fine of 250 coins</h1><h1 style=\"background-color:Tomato\">Remember, you need to keep going until you have 3000 coins!</h1><img id=\"box\" src=\"img/prizes/250.png\"></img><img id=\"box\" src=\"img/sad/blueopenboxsadthumb.png\"></img></div>","key_press":null,"trial_type":"html-keyboard-response","trial_index":75,"time_elapsed":353975,"internal_node_id":"0.0-19.25-1.25"},{"rt":379.2000000103144,"stimulus":"<p>Choose a box,</p>","button_pressed":1,"trial_type":"html-button-response","trial_index":76,"time_elapsed":354355,"internal_node_id":"0.0-19.26-0.26"},{"reward":100,"trial_type":"html-keyboard-response","trial_index":77,"time_elapsed":354355,"internal_node_id":"0.0-19.26-1.26"},{"penalty":1250,"trial_type":"html-keyboard-response","trial_index":77,"time_elapsed":354355,"internal_node_id":"0.0-19.26-1.26"},{"fined":false,"trial_type":"html-keyboard-response","trial_index":77,"time_elapsed":354355,"internal_node_id":"0.0-19.26-1.26"},{"rt":null,"stimulus":"<div style=\"background-color:#6dce98\"><h1 style=\"background-color:MediumSeaGreen\" >You earned 100 coins! Well done!</h1><div style=\"background-color:#6dce98\"><h1 style=\"background-color:MediumSeaGreen\" >Only 3450 left to go!</h1><img id=\"box\" src=\"img/prizes/coins2.png\"></img><img id=\"box\" src=\"img/empty/greenopenbox.png\"></img></div>","key_press":null,"trial_type":"html-keyboard-response","trial_index":77,"time_elapsed":357357,"internal_node_id":"0.0-19.26-1.26"},{"rt":323.13999999314547,"stimulus":"<p>Choose a box,</p>","button_pressed":2,"trial_type":"html-button-response","trial_index":78,"time_elapsed":357681,"internal_node_id":"0.0-19.27-0.27"},{"reward":50,"trial_type":"html-keyboard-response","trial_index":79,"time_elapsed":357681,"internal_node_id":"0.0-19.27-1.27"},{"penalty":50,"trial_type":"html-keyboard-response","trial_index":79,"time_elapsed":357681,"internal_node_id":"0.0-19.27-1.27"},{"fined":false,"trial_type":"html-keyboard-response","trial_index":79,"time_elapsed":357681,"internal_node_id":"0.0-19.27-1.27"},{"rt":null,"stimulus":"<div style=\"background-color:#6dce98\"><h1 style=\"background-color:MediumSeaGreen\" >You earned 50 coins! Well done!</h1><div style=\"background-color:#6dce98\"><h1 style=\"background-color:MediumSeaGreen\" >Only 3400 left to go!</h1><img id=\"box\" src=\"img/prizes/coins.png\"></img><img id=\"box\" src=\"img/empty/purpleopenbox.png\"></img></div>","key_press":null,"trial_type":"html-keyboard-response","trial_index":79,"time_elapsed":360683,"internal_node_id":"0.0-19.27-1.27"},{"rt":343.77500000118744,"stimulus":"<p>Choose a box,</p>","button_pressed":3,"trial_type":"html-button-response","trial_index":80,"time_elapsed":361027,"internal_node_id":"0.0-19.28-0.28"},{"reward":50,"trial_type":"html-keyboard-response","trial_index":81,"time_elapsed":361027,"internal_node_id":"0.0-19.28-1.28"},{"penalty":250,"trial_type":"html-keyboard-response","trial_index":81,"time_elapsed":361027,"internal_node_id":"0.0-19.28-1.28"},{"fined":false,"trial_type":"html-keyboard-response","trial_index":81,"time_elapsed":361027,"internal_node_id":"0.0-19.28-1.28"},{"rt":null,"stimulus":"<div style=\"background-color:#6dce98\"><h1 style=\"background-color:MediumSeaGreen\" >You earned 50 coins! Well done!</h1><div style=\"background-color:#6dce98\"><h1 style=\"background-color:MediumSeaGreen\" >Only 3350 left to go!</h1><img id=\"box\" src=\"img/prizes/coins.png\"></img><img id=\"box\" src=\"img/empty/redopenbox.png\"></img></div>","key_press":null,"trial_type":"html-keyboard-response","trial_index":81,"time_elapsed":364029,"internal_node_id":"0.0-19.28-1.28"},{"rt":452.27999999769963,"stimulus":"<p>Choose a box,</p>","button_pressed":1,"trial_type":"html-button-response","trial_index":82,"time_elapsed":364482,"internal_node_id":"0.0-19.29-0.29"},{"reward":100,"trial_type":"html-keyboard-response","trial_index":83,"time_elapsed":364482,"internal_node_id":"0.0-19.29-1.29"},{"penalty":1250,"trial_type":"html-keyboard-response","trial_index":83,"time_elapsed":364482,"internal_node_id":"0.0-19.29-1.29"},{"fined":false,"trial_type":"html-keyboard-response","trial_index":83,"time_elapsed":364482,"internal_node_id":"0.0-19.29-1.29"},{"rt":null,"stimulus":"<div style=\"background-color:#6dce98\"><h1 style=\"background-color:MediumSeaGreen\" >You earned 100 coins! Well done!</h1><div style=\"background-color:#6dce98\"><h1 style=\"background-color:MediumSeaGreen\" >Only 3250 left to go!</h1><img id=\"box\" src=\"img/prizes/coins2.png\"></img><img id=\"box\" src=\"img/empty/greenopenbox.png\"></img></div>","key_press":null,"trial_type":"html-keyboard-response","trial_index":83,"time_elapsed":367484,"internal_node_id":"0.0-19.29-1.29"},{"rt":955.5400000099326,"stimulus":"<p>Choose a box,</p>","button_pressed":0,"trial_type":"html-button-response","trial_index":84,"time_elapsed":368440,"internal_node_id":"0.0-19.30-0.30"},{"reward":100,"trial_type":"html-keyboard-response","trial_index":85,"time_elapsed":368440,"internal_node_id":"0.0-19.30-1.30"},{"penalty":250,"trial_type":"html-keyboard-response","trial_index":85,"time_elapsed":368440,"internal_node_id":"0.0-19.30-1.30"},{"fined":false,"trial_type":"html-keyboard-response","trial_index":85,"time_elapsed":368440,"internal_node_id":"0.0-19.30-1.30"},{"rt":null,"stimulus":"<div style=\"background-color:#6dce98\"><h1 style=\"background-color:MediumSeaGreen\" >You earned 100 coins! Well done!</h1><div style=\"background-color:#6dce98\"><h1 style=\"background-color:MediumSeaGreen\" >Only 3150 left to go!</h1><img id=\"box\" src=\"img/prizes/coins2.png\"></img><img id=\"box\" src=\"img/empty/blueopenbox.png\"></img></div>","key_press":null,"trial_type":"html-keyboard-response","trial_index":85,"time_elapsed":371442,"internal_node_id":"0.0-19.30-1.30"},{"rt":799.5750000118278,"stimulus":"<p>Choose a box,</p>","button_pressed":2,"trial_type":"html-button-response","trial_index":86,"time_elapsed":372242,"internal_node_id":"0.0-19.31-0.31"},{"reward":50,"trial_type":"html-keyboard-response","trial_index":87,"time_elapsed":372242,"internal_node_id":"0.0-19.31-1.31"},{"penalty":50,"trial_type":"html-keyboard-response","trial_index":87,"time_elapsed":372242,"internal_node_id":"0.0-19.31-1.31"},{"fined":true,"trial_type":"html-keyboard-response","trial_index":87,"time_elapsed":372242,"internal_node_id":"0.0-19.31-1.31"},{"rt":null,"stimulus":"<div style=\"background-color:#ff7157\"><h1 style=\"background-color:MediumSeaGreen\">You earned 50 coins</h1><h1 h1 style=\"background-color:Tomato\">but you have recieved a fine of 50 coins</h1><h1 style=\"background-color:Tomato\">Remember, you need to keep going until you have 3000 coins!</h1><img id=\"box\" src=\"img/prizes/50.png\"></img><img id=\"box\" src=\"img/sad/purpleopenboxsadthumb.png\"></img></div>","key_press":null,"trial_type":"html-keyboard-response","trial_index":87,"time_elapsed":375244,"internal_node_id":"0.0-19.31-1.31"},{"rt":365.8749999885913,"stimulus":"<p>Choose a box,</p>","button_pressed":2,"trial_type":"html-button-response","trial_index":88,"time_elapsed":375610,"internal_node_id":"0.0-19.32-0.32"},{"reward":50,"trial_type":"html-keyboard-response","trial_index":89,"time_elapsed":375610,"internal_node_id":"0.0-19.32-1.32"},{"penalty":50,"trial_type":"html-keyboard-response","trial_index":89,"time_elapsed":375610,"internal_node_id":"0.0-19.32-1.32"},{"fined":false,"trial_type":"html-keyboard-response","trial_index":89,"time_elapsed":375610,"internal_node_id":"0.0-19.32-1.32"},{"rt":null,"stimulus":"<div style=\"background-color:#6dce98\"><h1 style=\"background-color:MediumSeaGreen\" >You earned 50 coins! Well done!</h1><div style=\"background-color:#6dce98\"><h1 style=\"background-color:MediumSeaGreen\" >Only 3100 left to go!</h1><img id=\"box\" src=\"img/prizes/coins.png\"></img><img id=\"box\" src=\"img/empty/purpleopenbox.png\"></img></div>","key_press":null,"trial_type":"html-keyboard-response","trial_index":89,"time_elapsed":378614,"internal_node_id":"0.0-19.32-1.32"},{"rt":423.6149999924237,"stimulus":"<p>Choose a box,</p>","button_pressed":1,"trial_type":"html-button-response","trial_index":90,"time_elapsed":379038,"internal_node_id":"0.0-19.33-0.33"},{"reward":100,"trial_type":"html-keyboard-response","trial_index":91,"time_elapsed":379038,"internal_node_id":"0.0-19.33-1.33"},{"penalty":1250,"trial_type":"html-keyboard-response","trial_index":91,"time_elapsed":379038,"internal_node_id":"0.0-19.33-1.33"},{"fined":true,"trial_type":"html-keyboard-response","trial_index":91,"time_elapsed":379038,"internal_node_id":"0.0-19.33-1.33"},{"rt":null,"stimulus":"<div style=\"background-color:#ff7157\"><h1 style=\"background-color:MediumSeaGreen\">You earned 100 coins</h1><h1 h1 style=\"background-color:Tomato\">but you have recieved a fine of 1250 coins</h1><h1 style=\"background-color:Tomato\">Remember, you need to keep going until you have 3000 coins!</h1><img id=\"box\" src=\"img/prizes/1250.png\"></img><img id=\"box\" src=\"img/sad/greenopenboxsadthumb.png\"></img></div>","key_press":null,"trial_type":"html-keyboard-response","trial_index":91,"time_elapsed":382041,"internal_node_id":"0.0-19.33-1.33"},{"rt":2354.4200000033015,"stimulus":"<p>Choose a box,</p>","button_pressed":3,"trial_type":"html-button-response","trial_index":92,"time_elapsed":384397,"internal_node_id":"0.0-19.34-0.34"},{"reward":50,"trial_type":"html-keyboard-response","trial_index":93,"time_elapsed":384397,"internal_node_id":"0.0-19.34-1.34"},{"penalty":250,"trial_type":"html-keyboard-response","trial_index":93,"time_elapsed":384397,"internal_node_id":"0.0-19.34-1.34"},{"fined":false,"trial_type":"html-keyboard-response","trial_index":93,"time_elapsed":384397,"internal_node_id":"0.0-19.34-1.34"},{"rt":null,"stimulus":"<div style=\"background-color:#6dce98\"><h1 style=\"background-color:MediumSeaGreen\" >You earned 50 coins! Well done!</h1><div style=\"background-color:#6dce98\"><h1 style=\"background-color:MediumSeaGreen\" >Only 4200 left to go!</h1><img id=\"box\" src=\"img/prizes/coins.png\"></img><img id=\"box\" src=\"img/empty/redopenbox.png\"></img></div>","key_press":null,"trial_type":"html-keyboard-response","trial_index":93,"time_elapsed":387399,"internal_node_id":"0.0-19.34-1.34"},{"rt":364.69499999657273,"stimulus":"<p>Choose a box,</p>","button_pressed":3,"trial_type":"html-button-response","trial_index":94,"time_elapsed":387765,"internal_node_id":"0.0-19.35-0.35"},{"reward":50,"trial_type":"html-keyboard-response","trial_index":95,"time_elapsed":387765,"internal_node_id":"0.0-19.35-1.35"},{"penalty":250,"trial_type":"html-keyboard-response","trial_index":95,"time_elapsed":387765,"internal_node_id":"0.0-19.35-1.35"},{"fined":false,"trial_type":"html-keyboard-response","trial_index":95,"time_elapsed":387765,"internal_node_id":"0.0-19.35-1.35"},{"rt":null,"stimulus":"<div style=\"background-color:#6dce98\"><h1 style=\"background-color:MediumSeaGreen\" >You earned 50 coins! Well done!</h1><div style=\"background-color:#6dce98\"><h1 style=\"background-color:MediumSeaGreen\" >Only 4150 left to go!</h1><img id=\"box\" src=\"img/prizes/coins.png\"></img><img id=\"box\" src=\"img/empty/redopenbox.png\"></img></div>","key_press":null,"trial_type":"html-keyboard-response","trial_index":95,"time_elapsed":390767,"internal_node_id":"0.0-19.35-1.35"},{"rt":3762.4849999992875,"stimulus":"<p>Choose a box,</p>","button_pressed":2,"trial_type":"html-button-response","trial_index":96,"time_elapsed":394530,"internal_node_id":"0.0-19.36-0.36"},{"reward":50,"trial_type":"html-keyboard-response","trial_index":97,"time_elapsed":394530,"internal_node_id":"0.0-19.36-1.36"},{"penalty":50,"trial_type":"html-keyboard-response","trial_index":97,"time_elapsed":394530,"internal_node_id":"0.0-19.36-1.36"},{"fined":true,"trial_type":"html-keyboard-response","trial_index":97,"time_elapsed":394530,"internal_node_id":"0.0-19.36-1.36"},{"rt":null,"stimulus":"<div style=\"background-color:#ff7157\"><h1 style=\"background-color:MediumSeaGreen\">You earned 50 coins</h1><h1 h1 style=\"background-color:Tomato\">but you have recieved a fine of 50 coins</h1><h1 style=\"background-color:Tomato\">Remember, you need to keep going until you have 3000 coins!</h1><img id=\"box\" src=\"img/prizes/50.png\"></img><img id=\"box\" src=\"img/sad/purpleopenboxsadthumb.png\"></img></div>","key_press":null,"trial_type":"html-keyboard-response","trial_index":97,"time_elapsed":397532,"internal_node_id":"0.0-19.36-1.36"},{"rt":671.8299999920418,"stimulus":"<p>Choose a box,</p>","button_pressed":1,"trial_type":"html-button-response","trial_index":98,"time_elapsed":398204,"internal_node_id":"0.0-19.37-0.37"},{"reward":100,"trial_type":"html-keyboard-response","trial_index":99,"time_elapsed":398205,"internal_node_id":"0.0-19.37-1.37"},{"penalty":1250,"trial_type":"html-keyboard-response","trial_index":99,"time_elapsed":398205,"internal_node_id":"0.0-19.37-1.37"},{"fined":false,"trial_type":"html-keyboard-response","trial_index":99,"time_elapsed":398205,"internal_node_id":"0.0-19.37-1.37"},{"rt":null,"stimulus":"<div style=\"background-color:#6dce98\"><h1 style=\"background-color:MediumSeaGreen\" >You earned 100 coins! Well done!</h1><div style=\"background-color:#6dce98\"><h1 style=\"background-color:MediumSeaGreen\" >Only 4050 left to go!</h1><img id=\"box\" src=\"img/prizes/coins2.png\"></img><img id=\"box\" src=\"img/empty/greenopenbox.png\"></img></div>","key_press":null,"trial_type":"html-keyboard-response","trial_index":99,"time_elapsed":401207,"internal_node_id":"0.0-19.37-1.37"},{"rt":502.2400000016205,"stimulus":"<p>Choose a box,</p>","button_pressed":1,"trial_type":"html-button-response","trial_index":100,"time_elapsed":401710,"internal_node_id":"0.0-19.38-0.38"},{"reward":100,"trial_type":"html-keyboard-response","trial_index":101,"time_elapsed":401710,"internal_node_id":"0.0-19.38-1.38"},{"penalty":1250,"trial_type":"html-keyboard-response","trial_index":101,"time_elapsed":401710,"internal_node_id":"0.0-19.38-1.38"},{"fined":false,"trial_type":"html-keyboard-response","trial_index":101,"time_elapsed":401710,"internal_node_id":"0.0-19.38-1.38"},{"rt":null,"stimulus":"<div style=\"background-color:#6dce98\"><h1 style=\"background-color:MediumSeaGreen\" >You earned 100 coins! Well done!</h1><div style=\"background-color:#6dce98\"><h1 style=\"background-color:MediumSeaGreen\" >Only 3950 left to go!</h1><img id=\"box\" src=\"img/prizes/coins2.png\"></img><img id=\"box\" src=\"img/empty/greenopenbox.png\"></img></div>","key_press":null,"trial_type":"html-keyboard-response","trial_index":101,"time_elapsed":404713,"internal_node_id":"0.0-19.38-1.38"},{"rt":734.5300000015413,"stimulus":"<p>Choose a box,</p>","button_pressed":0,"trial_type":"html-button-response","trial_index":102,"time_elapsed":405448,"internal_node_id":"0.0-19.39-0.39"},{"reward":100,"trial_type":"html-keyboard-response","trial_index":103,"time_elapsed":405449,"internal_node_id":"0.0-19.39-1.39"},{"penalty":250,"trial_type":"html-keyboard-response","trial_index":103,"time_elapsed":405449,"internal_node_id":"0.0-19.39-1.39"},{"fined":true,"trial_type":"html-keyboard-response","trial_index":103,"time_elapsed":405449,"internal_node_id":"0.0-19.39-1.39"},{"rt":null,"stimulus":"<div style=\"background-color:#ff7157\"><h1 style=\"background-color:MediumSeaGreen\">You earned 100 coins</h1><h1 h1 style=\"background-color:Tomato\">but you have recieved a fine of 250 coins</h1><h1 style=\"background-color:Tomato\">Remember, you need to keep going until you have 3000 coins!</h1><img id=\"box\" src=\"img/prizes/250.png\"></img><img id=\"box\" src=\"img/sad/blueopenboxsadthumb.png\"></img></div>","key_press":null,"trial_type":"html-keyboard-response","trial_index":103,"time_elapsed":408450,"internal_node_id":"0.0-19.39-1.39"},{"rt":189.79999999282882,"stimulus":"<p>Choose a box,</p>","button_pressed":1,"trial_type":"html-button-response","trial_index":104,"time_elapsed":408641,"internal_node_id":"0.0-19.40-0.40"},{"reward":100,"trial_type":"html-keyboard-response","trial_index":105,"time_elapsed":408641,"internal_node_id":"0.0-19.40-1.40"},{"penalty":1250,"trial_type":"html-keyboard-response","trial_index":105,"time_elapsed":408641,"internal_node_id":"0.0-19.40-1.40"},{"fined":false,"trial_type":"html-keyboard-response","trial_index":105,"time_elapsed":408641,"internal_node_id":"0.0-19.40-1.40"},{"rt":null,"stimulus":"<div style=\"background-color:#6dce98\"><h1 style=\"background-color:MediumSeaGreen\" >You earned 100 coins! Well done!</h1><div style=\"background-color:#6dce98\"><h1 style=\"background-color:MediumSeaGreen\" >Only 4000 left to go!</h1><img id=\"box\" src=\"img/prizes/coins2.png\"></img><img id=\"box\" src=\"img/empty/greenopenbox.png\"></img></div>","key_press":null,"trial_type":"html-keyboard-response","trial_index":105,"time_elapsed":411642,"internal_node_id":"0.0-19.40-1.40"},{"rt":364.27499999990687,"stimulus":"<p>Choose a box,</p>","button_pressed":2,"trial_type":"html-button-response","trial_index":106,"time_elapsed":412007,"internal_node_id":"0.0-19.41-0.41"},{"reward":50,"trial_type":"html-keyboard-response","trial_index":107,"time_elapsed":412007,"internal_node_id":"0.0-19.41-1.41"},{"penalty":50,"trial_type":"html-keyboard-response","trial_index":107,"time_elapsed":412007,"internal_node_id":"0.0-19.41-1.41"},{"fined":false,"trial_type":"html-keyboard-response","trial_index":107,"time_elapsed":412007,"internal_node_id":"0.0-19.41-1.41"},{"rt":null,"stimulus":"<div style=\"background-color:#6dce98\"><h1 style=\"background-color:MediumSeaGreen\" >You earned 50 coins! Well done!</h1><div style=\"background-color:#6dce98\"><h1 style=\"background-color:MediumSeaGreen\" >Only 3950 left to go!</h1><img id=\"box\" src=\"img/prizes/coins.png\"></img><img id=\"box\" src=\"img/empty/purpleopenbox.png\"></img></div>","key_press":null,"trial_type":"html-keyboard-response","trial_index":107,"time_elapsed":415009,"internal_node_id":"0.0-19.41-1.41"},{"rt":793.5100000031525,"stimulus":"<p>Choose a box,</p>","button_pressed":3,"trial_type":"html-button-response","trial_index":108,"time_elapsed":415803,"internal_node_id":"0.0-19.42-0.42"},{"reward":50,"trial_type":"html-keyboard-response","trial_index":109,"time_elapsed":415803,"internal_node_id":"0.0-19.42-1.42"},{"penalty":250,"trial_type":"html-keyboard-response","trial_index":109,"time_elapsed":415803,"internal_node_id":"0.0-19.42-1.42"},{"fined":false,"trial_type":"html-keyboard-response","trial_index":109,"time_elapsed":415803,"internal_node_id":"0.0-19.42-1.42"},{"rt":null,"stimulus":"<div style=\"background-color:#6dce98\"><h1 style=\"background-color:MediumSeaGreen\" >You earned 50 coins! Well done!</h1><div style=\"background-color:#6dce98\"><h1 style=\"background-color:MediumSeaGreen\" >Only 3900 left to go!</h1><img id=\"box\" src=\"img/prizes/coins.png\"></img><img id=\"box\" src=\"img/empty/redopenbox.png\"></img></div>","key_press":null,"trial_type":"html-keyboard-response","trial_index":109,"time_elapsed":418805,"internal_node_id":"0.0-19.42-1.42"},{"rt":626.879999996163,"stimulus":"<p>Choose a box,</p>","button_pressed":1,"trial_type":"html-button-response","trial_index":110,"time_elapsed":419433,"internal_node_id":"0.0-19.43-0.43"},{"reward":100,"trial_type":"html-keyboard-response","trial_index":111,"time_elapsed":419433,"internal_node_id":"0.0-19.43-1.43"},{"penalty":1250,"trial_type":"html-keyboard-response","trial_index":111,"time_elapsed":419433,"internal_node_id":"0.0-19.43-1.43"},{"fined":false,"trial_type":"html-keyboard-response","trial_index":111,"time_elapsed":419433,"internal_node_id":"0.0-19.43-1.43"},{"rt":null,"stimulus":"<div style=\"background-color:#6dce98\"><h1 style=\"background-color:MediumSeaGreen\" >You earned 100 coins! Well done!</h1><div style=\"background-color:#6dce98\"><h1 style=\"background-color:MediumSeaGreen\" >Only 3800 left to go!</h1><img id=\"box\" src=\"img/prizes/coins2.png\"></img><img id=\"box\" src=\"img/empty/greenopenbox.png\"></img></div>","key_press":null,"trial_type":"html-keyboard-response","trial_index":111,"time_elapsed":422435,"internal_node_id":"0.0-19.43-1.43"},{"rt":488.4799999999814,"stimulus":"<p>Choose a box,</p>","button_pressed":2,"trial_type":"html-button-response","trial_index":112,"time_elapsed":422924,"internal_node_id":"0.0-19.44-0.44"},{"reward":50,"trial_type":"html-keyboard-response","trial_index":113,"time_elapsed":422924,"internal_node_id":"0.0-19.44-1.44"},{"penalty":50,"trial_type":"html-keyboard-response","trial_index":113,"time_elapsed":422924,"internal_node_id":"0.0-19.44-1.44"},{"fined":true,"trial_type":"html-keyboard-response","trial_index":113,"time_elapsed":422924,"internal_node_id":"0.0-19.44-1.44"},{"rt":null,"stimulus":"<div style=\"background-color:#ff7157\"><h1 style=\"background-color:MediumSeaGreen\">You earned 50 coins</h1><h1 h1 style=\"background-color:Tomato\">but you have recieved a fine of 50 coins</h1><h1 style=\"background-color:Tomato\">Remember, you need to keep going until you have 3000 coins!</h1><img id=\"box\" src=\"img/prizes/50.png\"></img><img id=\"box\" src=\"img/sad/purpleopenboxsadthumb.png\"></img></div>","key_press":null,"trial_type":"html-keyboard-response","trial_index":113,"time_elapsed":425926,"internal_node_id":"0.0-19.44-1.44"},{"rt":433.5999999893829,"stimulus":"<p>Choose a box,</p>","button_pressed":0,"trial_type":"html-button-response","trial_index":114,"time_elapsed":426360,"internal_node_id":"0.0-19.45-0.45"},{"reward":100,"trial_type":"html-keyboard-response","trial_index":115,"time_elapsed":426360,"internal_node_id":"0.0-19.45-1.45"},{"penalty":250,"trial_type":"html-keyboard-response","trial_index":115,"time_elapsed":426360,"internal_node_id":"0.0-19.45-1.45"},{"fined":true,"trial_type":"html-keyboard-response","trial_index":115,"time_elapsed":426360,"internal_node_id":"0.0-19.45-1.45"},{"rt":null,"stimulus":"<div style=\"background-color:#ff7157\"><h1 style=\"background-color:MediumSeaGreen\">You earned 100 coins</h1><h1 h1 style=\"background-color:Tomato\">but you have recieved a fine of 250 coins</h1><h1 style=\"background-color:Tomato\">Remember, you need to keep going until you have 3000 coins!</h1><img id=\"box\" src=\"img/prizes/250.png\"></img><img id=\"box\" src=\"img/sad/blueopenboxsadthumb.png\"></img></div>","key_press":null,"trial_type":"html-keyboard-response","trial_index":115,"time_elapsed":429361,"internal_node_id":"0.0-19.45-1.45"},{"rt":278.50499999476597,"stimulus":"<p>Choose a box,</p>","button_pressed":1,"trial_type":"html-button-response","trial_index":116,"time_elapsed":429640,"internal_node_id":"0.0-19.46-0.46"},{"reward":100,"trial_type":"html-keyboard-response","trial_index":117,"time_elapsed":429640,"internal_node_id":"0.0-19.46-1.46"},{"penalty":1250,"trial_type":"html-keyboard-response","trial_index":117,"time_elapsed":429640,"internal_node_id":"0.0-19.46-1.46"},{"fined":false,"trial_type":"html-keyboard-response","trial_index":117,"time_elapsed":429640,"internal_node_id":"0.0-19.46-1.46"},{"rt":null,"stimulus":"<div style=\"background-color:#6dce98\"><h1 style=\"background-color:MediumSeaGreen\" >You earned 100 coins! Well done!</h1><div style=\"background-color:#6dce98\"><h1 style=\"background-color:MediumSeaGreen\" >Only 3850 left to go!</h1><img id=\"box\" src=\"img/prizes/coins2.png\"></img><img id=\"box\" src=\"img/empty/greenopenbox.png\"></img></div>","key_press":null,"trial_type":"html-keyboard-response","trial_index":117,"time_elapsed":432643,"internal_node_id":"0.0-19.46-1.46"},{"rt":438.43000000924803,"stimulus":"<p>Choose a box,</p>","button_pressed":1,"trial_type":"html-button-response","trial_index":118,"time_elapsed":433082,"internal_node_id":"0.0-19.47-0.47"},{"reward":100,"trial_type":"html-keyboard-response","trial_index":119,"time_elapsed":433082,"internal_node_id":"0.0-19.47-1.47"},{"penalty":1250,"trial_type":"html-keyboard-response","trial_index":119,"time_elapsed":433082,"internal_node_id":"0.0-19.47-1.47"},{"fined":false,"trial_type":"html-keyboard-response","trial_index":119,"time_elapsed":433082,"internal_node_id":"0.0-19.47-1.47"},{"rt":null,"stimulus":"<div style=\"background-color:#6dce98\"><h1 style=\"background-color:MediumSeaGreen\" >You earned 100 coins! Well done!</h1><div style=\"background-color:#6dce98\"><h1 style=\"background-color:MediumSeaGreen\" >Only 3750 left to go!</h1><img id=\"box\" src=\"img/prizes/coins2.png\"></img><img id=\"box\" src=\"img/empty/greenopenbox.png\"></img></div>","key_press":null,"trial_type":"html-keyboard-response","trial_index":119,"time_elapsed":436083,"internal_node_id":"0.0-19.47-1.47"},{"rt":254.33500000508502,"stimulus":"<p>Choose a box,</p>","button_pressed":1,"trial_type":"html-button-response","trial_index":120,"time_elapsed":436338,"internal_node_id":"0.0-19.48-0.48"},{"reward":100,"trial_type":"html-keyboard-response","trial_index":121,"time_elapsed":436338,"internal_node_id":"0.0-19.48-1.48"},{"penalty":1250,"trial_type":"html-keyboard-response","trial_index":121,"time_elapsed":436338,"internal_node_id":"0.0-19.48-1.48"},{"fined":false,"trial_type":"html-keyboard-response","trial_index":121,"time_elapsed":436338,"internal_node_id":"0.0-19.48-1.48"},{"rt":null,"stimulus":"<div style=\"background-color:#6dce98\"><h1 style=\"background-color:MediumSeaGreen\" >You earned 100 coins! Well done!</h1><div style=\"background-color:#6dce98\"><h1 style=\"background-color:MediumSeaGreen\" >Only 3650 left to go!</h1><img id=\"box\" src=\"img/prizes/coins2.png\"></img><img id=\"box\" src=\"img/empty/greenopenbox.png\"></img></div>","key_press":null,"trial_type":"html-keyboard-response","trial_index":121,"time_elapsed":439341,"internal_node_id":"0.0-19.48-1.48"},{"rt":358.21500000020023,"stimulus":"<p>Choose a box,</p>","button_pressed":1,"trial_type":"html-button-response","trial_index":122,"time_elapsed":439700,"internal_node_id":"0.0-19.49-0.49"},{"reward":100,"trial_type":"html-keyboard-response","trial_index":123,"time_elapsed":439700,"internal_node_id":"0.0-19.49-1.49"},{"penalty":1250,"trial_type":"html-keyboard-response","trial_index":123,"time_elapsed":439700,"internal_node_id":"0.0-19.49-1.49"},{"fined":false,"trial_type":"html-keyboard-response","trial_index":123,"time_elapsed":439700,"internal_node_id":"0.0-19.49-1.49"},{"rt":null,"stimulus":"<div style=\"background-color:#6dce98\"><h1 style=\"background-color:MediumSeaGreen\" >You earned 100 coins! Well done!</h1><div style=\"background-color:#6dce98\"><h1 style=\"background-color:MediumSeaGreen\" >Only 3550 left to go!</h1><img id=\"box\" src=\"img/prizes/coins2.png\"></img><img id=\"box\" src=\"img/empty/greenopenbox.png\"></img></div>","key_press":null,"trial_type":"html-keyboard-response","trial_index":123,"time_elapsed":442702,"internal_node_id":"0.0-19.49-1.49"},{"rt":352.83499999786727,"stimulus":"<p>Choose a box,</p>","button_pressed":1,"trial_type":"html-button-response","trial_index":124,"time_elapsed":443073,"internal_node_id":"0.0-19.50-0.50"},{"reward":100,"trial_type":"html-keyboard-response","trial_index":125,"time_elapsed":443073,"internal_node_id":"0.0-19.50-1.50"},{"penalty":1250,"trial_type":"html-keyboard-response","trial_index":125,"time_elapsed":443073,"internal_node_id":"0.0-19.50-1.50"},{"fined":false,"trial_type":"html-keyboard-response","trial_index":125,"time_elapsed":443073,"internal_node_id":"0.0-19.50-1.50"},{"rt":null,"stimulus":"<div style=\"background-color:#6dce98\"><h1 style=\"background-color:MediumSeaGreen\" >You earned 100 coins! Well done!</h1><div style=\"background-color:#6dce98\"><h1 style=\"background-color:MediumSeaGreen\" >Only 3450 left to go!</h1><img id=\"box\" src=\"img/prizes/coins2.png\"></img><img id=\"box\" src=\"img/empty/greenopenbox.png\"></img></div>","key_press":null,"trial_type":"html-keyboard-response","trial_index":125,"time_elapsed":446075,"internal_node_id":"0.0-19.50-1.50"},{"rt":313.7750000023516,"stimulus":"<p>Choose a box,</p>","button_pressed":1,"trial_type":"html-button-response","trial_index":126,"time_elapsed":446390,"internal_node_id":"0.0-19.51-0.51"},{"reward":100,"trial_type":"html-keyboard-response","trial_index":127,"time_elapsed":446390,"internal_node_id":"0.0-19.51-1.51"},{"penalty":1250,"trial_type":"html-keyboard-response","trial_index":127,"time_elapsed":446390,"internal_node_id":"0.0-19.51-1.51"},{"fined":false,"trial_type":"html-keyboard-response","trial_index":127,"time_elapsed":446390,"internal_node_id":"0.0-19.51-1.51"},{"rt":null,"stimulus":"<div style=\"background-color:#6dce98\"><h1 style=\"background-color:MediumSeaGreen\" >You earned 100 coins! Well done!</h1><div style=\"background-color:#6dce98\"><h1 style=\"background-color:MediumSeaGreen\" >Only 3350 left to go!</h1><img id=\"box\" src=\"img/prizes/coins2.png\"></img><img id=\"box\" src=\"img/empty/greenopenbox.png\"></img></div>","key_press":null,"trial_type":"html-keyboard-response","trial_index":127,"time_elapsed":449393,"internal_node_id":"0.0-19.51-1.51"},{"rt":128.15499999851454,"stimulus":"<p>Choose a box,</p>","button_pressed":1,"trial_type":"html-button-response","trial_index":128,"time_elapsed":449522,"internal_node_id":"0.0-19.52-0.52"},{"reward":100,"trial_type":"html-keyboard-response","trial_index":129,"time_elapsed":449522,"internal_node_id":"0.0-19.52-1.52"},{"penalty":1250,"trial_type":"html-keyboard-response","trial_index":129,"time_elapsed":449522,"internal_node_id":"0.0-19.52-1.52"},{"fined":false,"trial_type":"html-keyboard-response","trial_index":129,"time_elapsed":449522,"internal_node_id":"0.0-19.52-1.52"},{"rt":null,"stimulus":"<div style=\"background-color:#6dce98\"><h1 style=\"background-color:MediumSeaGreen\" >You earned 100 coins! Well done!</h1><div style=\"background-color:#6dce98\"><h1 style=\"background-color:MediumSeaGreen\" >Only 3250 left to go!</h1><img id=\"box\" src=\"img/prizes/coins2.png\"></img><img id=\"box\" src=\"img/empty/greenopenbox.png\"></img></div>","key_press":null,"trial_type":"html-keyboard-response","trial_index":129,"time_elapsed":452524,"internal_node_id":"0.0-19.52-1.52"},{"rt":339.68499999900814,"stimulus":"<p>Choose a box,</p>","button_pressed":1,"trial_type":"html-button-response","trial_index":130,"time_elapsed":452864,"internal_node_id":"0.0-19.53-0.53"},{"reward":100,"trial_type":"html-keyboard-response","trial_index":131,"time_elapsed":452864,"internal_node_id":"0.0-19.53-1.53"},{"penalty":1250,"trial_type":"html-keyboard-response","trial_index":131,"time_elapsed":452864,"internal_node_id":"0.0-19.53-1.53"},{"fined":false,"trial_type":"html-keyboard-response","trial_index":131,"time_elapsed":452864,"internal_node_id":"0.0-19.53-1.53"},{"rt":null,"stimulus":"<div style=\"background-color:#6dce98\"><h1 style=\"background-color:MediumSeaGreen\" >You earned 100 coins! Well done!</h1><div style=\"background-color:#6dce98\"><h1 style=\"background-color:MediumSeaGreen\" >Only 3150 left to go!</h1><img id=\"box\" src=\"img/prizes/coins2.png\"></img><img id=\"box\" src=\"img/empty/greenopenbox.png\"></img></div>","key_press":null,"trial_type":"html-keyboard-response","trial_index":131,"time_elapsed":455866,"internal_node_id":"0.0-19.53-1.53"},{"rt":399.01999999710824,"stimulus":"<p>Choose a box,</p>","button_pressed":1,"trial_type":"html-button-response","trial_index":132,"time_elapsed":456266,"internal_node_id":"0.0-19.54-0.54"},{"reward":100,"trial_type":"html-keyboard-response","trial_index":133,"time_elapsed":456266,"internal_node_id":"0.0-19.54-1.54"},{"penalty":1250,"trial_type":"html-keyboard-response","trial_index":133,"time_elapsed":456266,"internal_node_id":"0.0-19.54-1.54"},{"fined":false,"trial_type":"html-keyboard-response","trial_index":133,"time_elapsed":456266,"internal_node_id":"0.0-19.54-1.54"},{"rt":null,"stimulus":"<div style=\"background-color:#6dce98\"><h1 style=\"background-color:MediumSeaGreen\" >You earned 100 coins! Well done!</h1><div style=\"background-color:#6dce98\"><h1 style=\"background-color:MediumSeaGreen\" >Only 3050 left to go!</h1><img id=\"box\" src=\"img/prizes/coins2.png\"></img><img id=\"box\" src=\"img/empty/greenopenbox.png\"></img></div>","key_press":null,"trial_type":"html-keyboard-response","trial_index":133,"time_elapsed":459268,"internal_node_id":"0.0-19.54-1.54"},{"rt":711.4949999959208,"stimulus":"<p>Choose a box,</p>","button_pressed":1,"trial_type":"html-button-response","trial_index":134,"time_elapsed":459980,"internal_node_id":"0.0-19.55-0.55"},{"reward":100,"trial_type":"html-keyboard-response","trial_index":135,"time_elapsed":459980,"internal_node_id":"0.0-19.55-1.55"},{"penalty":1250,"trial_type":"html-keyboard-response","trial_index":135,"time_elapsed":459980,"internal_node_id":"0.0-19.55-1.55"},{"fined":false,"trial_type":"html-keyboard-response","trial_index":135,"time_elapsed":459980,"internal_node_id":"0.0-19.55-1.55"},{"rt":null,"stimulus":"<div style=\"background-color:#6dce98\"><h1 style=\"background-color:MediumSeaGreen\" >You earned 100 coins! Well done!</h1><div style=\"background-color:#6dce98\"><h1 style=\"background-color:MediumSeaGreen\" >Only 2950 left to go!</h1><img id=\"box\" src=\"img/prizes/coins2.png\"></img><img id=\"box\" src=\"img/empty/greenopenbox.png\"></img></div>","key_press":null,"trial_type":"html-keyboard-response","trial_index":135,"time_elapsed":462982,"internal_node_id":"0.0-19.55-1.55"},{"rt":335.94499999890104,"stimulus":"<p>Choose a box,</p>","button_pressed":1,"trial_type":"html-button-response","trial_index":136,"time_elapsed":463319,"internal_node_id":"0.0-19.56-0.56"},{"reward":100,"trial_type":"html-keyboard-response","trial_index":137,"time_elapsed":463319,"internal_node_id":"0.0-19.56-1.56"},{"penalty":1250,"trial_type":"html-keyboard-response","trial_index":137,"time_elapsed":463319,"internal_node_id":"0.0-19.56-1.56"},{"fined":false,"trial_type":"html-keyboard-response","trial_index":137,"time_elapsed":463319,"internal_node_id":"0.0-19.56-1.56"},{"rt":null,"stimulus":"<div style=\"background-color:#6dce98\"><h1 style=\"background-color:MediumSeaGreen\" >You earned 100 coins! Well done!</h1><div style=\"background-color:#6dce98\"><h1 style=\"background-color:MediumSeaGreen\" >Only 2850 left to go!</h1><img id=\"box\" src=\"img/prizes/coins2.png\"></img><img id=\"box\" src=\"img/empty/greenopenbox.png\"></img></div>","key_press":null,"trial_type":"html-keyboard-response","trial_index":137,"time_elapsed":466321,"internal_node_id":"0.0-19.56-1.56"},{"rt":368.094999997993,"stimulus":"<p>Choose a box,</p>","button_pressed":1,"trial_type":"html-button-response","trial_index":138,"time_elapsed":466690,"internal_node_id":"0.0-19.57-0.57"},{"reward":100,"trial_type":"html-keyboard-response","trial_index":139,"time_elapsed":466691,"internal_node_id":"0.0-19.57-1.57"},{"penalty":1250,"trial_type":"html-keyboard-response","trial_index":139,"time_elapsed":466691,"internal_node_id":"0.0-19.57-1.57"},{"fined":false,"trial_type":"html-keyboard-response","trial_index":139,"time_elapsed":466691,"internal_node_id":"0.0-19.57-1.57"},{"rt":null,"stimulus":"<div style=\"background-color:#6dce98\"><h1 style=\"background-color:MediumSeaGreen\" >You earned 100 coins! Well done!</h1><div style=\"background-color:#6dce98\"><h1 style=\"background-color:MediumSeaGreen\" >Only 2750 left to go!</h1><img id=\"box\" src=\"img/prizes/coins2.png\"></img><img id=\"box\" src=\"img/empty/greenopenbox.png\"></img></div>","key_press":null,"trial_type":"html-keyboard-response","trial_index":139,"time_elapsed":469694,"internal_node_id":"0.0-19.57-1.57"},{"rt":754.7449999983655,"stimulus":"<p>Choose a box,</p>","button_pressed":1,"trial_type":"html-button-response","trial_index":140,"time_elapsed":470450,"internal_node_id":"0.0-19.58-0.58"},{"reward":100,"trial_type":"html-keyboard-response","trial_index":141,"time_elapsed":470450,"internal_node_id":"0.0-19.58-1.58"},{"penalty":1250,"trial_type":"html-keyboard-response","trial_index":141,"time_elapsed":470450,"internal_node_id":"0.0-19.58-1.58"},{"fined":true,"trial_type":"html-keyboard-response","trial_index":141,"time_elapsed":470450,"internal_node_id":"0.0-19.58-1.58"},{"rt":null,"stimulus":"<div style=\"background-color:#ff7157\"><h1 style=\"background-color:MediumSeaGreen\">You earned 100 coins</h1><h1 h1 style=\"background-color:Tomato\">but you have recieved a fine of 1250 coins</h1><h1 style=\"background-color:Tomato\">Remember, you need to keep going until you have 3000 coins!</h1><img id=\"box\" src=\"img/prizes/1250.png\"></img><img id=\"box\" src=\"img/sad/greenopenboxsadthumb.png\"></img></div>","key_press":null,"trial_type":"html-keyboard-response","trial_index":141,"time_elapsed":473452,"internal_node_id":"0.0-19.58-1.58"},{"rt":983.0950000032317,"stimulus":"<p>Choose a box,</p>","button_pressed":2,"trial_type":"html-button-response","trial_index":142,"time_elapsed":474436,"internal_node_id":"0.0-19.59-0.59"},{"reward":50,"trial_type":"html-keyboard-response","trial_index":143,"time_elapsed":474436,"internal_node_id":"0.0-19.59-1.59"},{"penalty":50,"trial_type":"html-keyboard-response","trial_index":143,"time_elapsed":474436,"internal_node_id":"0.0-19.59-1.59"},{"fined":true,"trial_type":"html-keyboard-response","trial_index":143,"time_elapsed":474436,"internal_node_id":"0.0-19.59-1.59"},{"rt":null,"stimulus":"<div style=\"background-color:#ff7157\"><h1 style=\"background-color:MediumSeaGreen\">You earned 50 coins</h1><h1 h1 style=\"background-color:Tomato\">but you have recieved a fine of 50 coins</h1><h1 style=\"background-color:Tomato\">Remember, you need to keep going until you have 3000 coins!</h1><img id=\"box\" src=\"img/prizes/50.png\"></img><img id=\"box\" src=\"img/sad/purpleopenboxsadthumb.png\"></img></div>","key_press":null,"trial_type":"html-keyboard-response","trial_index":143,"time_elapsed":477438,"internal_node_id":"0.0-19.59-1.59"},{"rt":382.1999999927357,"stimulus":"<p>Choose a box,</p>","button_pressed":3,"trial_type":"html-button-response","trial_index":144,"time_elapsed":477822,"internal_node_id":"0.0-19.60-0.60"},{"reward":50,"trial_type":"html-keyboard-response","trial_index":145,"time_elapsed":477822,"internal_node_id":"0.0-19.60-1.60"},{"penalty":250,"trial_type":"html-keyboard-response","trial_index":145,"time_elapsed":477822,"internal_node_id":"0.0-19.60-1.60"},{"fined":false,"trial_type":"html-keyboard-response","trial_index":145,"time_elapsed":477822,"internal_node_id":"0.0-19.60-1.60"},{"rt":null,"stimulus":"<div style=\"background-color:#6dce98\"><h1 style=\"background-color:MediumSeaGreen\" >You earned 50 coins! Well done!</h1><div style=\"background-color:#6dce98\"><h1 style=\"background-color:MediumSeaGreen\" >Only 3850 left to go!</h1><img id=\"box\" src=\"img/prizes/coins.png\"></img><img id=\"box\" src=\"img/empty/redopenbox.png\"></img></div>","key_press":null,"trial_type":"html-keyboard-response","trial_index":145,"time_elapsed":480823,"internal_node_id":"0.0-19.60-1.60"},{"rt":412.8049999999348,"stimulus":"<p>Choose a box,</p>","button_pressed":0,"trial_type":"html-button-response","trial_index":146,"time_elapsed":481237,"internal_node_id":"0.0-19.61-0.61"},{"reward":100,"trial_type":"html-keyboard-response","trial_index":147,"time_elapsed":481237,"internal_node_id":"0.0-19.61-1.61"},{"penalty":250,"trial_type":"html-keyboard-response","trial_index":147,"time_elapsed":481237,"internal_node_id":"0.0-19.61-1.61"},{"fined":true,"trial_type":"html-keyboard-response","trial_index":147,"time_elapsed":481237,"internal_node_id":"0.0-19.61-1.61"},{"rt":null,"stimulus":"<div style=\"background-color:#ff7157\"><h1 style=\"background-color:MediumSeaGreen\">You earned 100 coins</h1><h1 h1 style=\"background-color:Tomato\">but you have recieved a fine of 250 coins</h1><h1 style=\"background-color:Tomato\">Remember, you need to keep going until you have 3000 coins!</h1><img id=\"box\" src=\"img/prizes/250.png\"></img><img id=\"box\" src=\"img/sad/blueopenboxsadthumb.png\"></img></div>","key_press":null,"trial_type":"html-keyboard-response","trial_index":147,"time_elapsed":484239,"internal_node_id":"0.0-19.61-1.61"},{"rt":545.1900000043679,"stimulus":"<p>Choose a box,</p>","button_pressed":2,"trial_type":"html-button-response","trial_index":148,"time_elapsed":484785,"internal_node_id":"0.0-19.62-0.62"},{"reward":50,"trial_type":"html-keyboard-response","trial_index":149,"time_elapsed":484785,"internal_node_id":"0.0-19.62-1.62"},{"penalty":50,"trial_type":"html-keyboard-response","trial_index":149,"time_elapsed":484785,"internal_node_id":"0.0-19.62-1.62"},{"fined":true,"trial_type":"html-keyboard-response","trial_index":149,"time_elapsed":484785,"internal_node_id":"0.0-19.62-1.62"},{"rt":null,"stimulus":"<div style=\"background-color:#ff7157\"><h1 style=\"background-color:MediumSeaGreen\">You earned 50 coins</h1><h1 h1 style=\"background-color:Tomato\">but you have recieved a fine of 50 coins</h1><h1 style=\"background-color:Tomato\">Remember, you need to keep going until you have 3000 coins!</h1><img id=\"box\" src=\"img/prizes/50.png\"></img><img id=\"box\" src=\"img/sad/purpleopenboxsadthumb.png\"></img></div>","key_press":null,"trial_type":"html-keyboard-response","trial_index":149,"time_elapsed":487787,"internal_node_id":"0.0-19.62-1.62"},{"rt":386.3649999984773,"stimulus":"<p>Choose a box,</p>","button_pressed":1,"trial_type":"html-button-response","trial_index":150,"time_elapsed":488174,"internal_node_id":"0.0-19.63-0.63"},{"reward":100,"trial_type":"html-keyboard-response","trial_index":151,"time_elapsed":488174,"internal_node_id":"0.0-19.63-1.63"},{"penalty":1250,"trial_type":"html-keyboard-response","trial_index":151,"time_elapsed":488174,"internal_node_id":"0.0-19.63-1.63"},{"fined":false,"trial_type":"html-keyboard-response","trial_index":151,"time_elapsed":488174,"internal_node_id":"0.0-19.63-1.63"},{"rt":null,"stimulus":"<div style=\"background-color:#6dce98\"><h1 style=\"background-color:MediumSeaGreen\" >You earned 100 coins! Well done!</h1><div style=\"background-color:#6dce98\"><h1 style=\"background-color:MediumSeaGreen\" >Only 3900 left to go!</h1><img id=\"box\" src=\"img/prizes/coins2.png\"></img><img id=\"box\" src=\"img/empty/greenopenbox.png\"></img></div>","key_press":null,"trial_type":"html-keyboard-response","trial_index":151,"time_elapsed":491177,"internal_node_id":"0.0-19.63-1.63"},{"rt":636.67500000156,"stimulus":"<p>Choose a box,</p>","button_pressed":1,"trial_type":"html-button-response","trial_index":152,"time_elapsed":491814,"internal_node_id":"0.0-19.64-0.64"},{"reward":100,"trial_type":"html-keyboard-response","trial_index":153,"time_elapsed":491815,"internal_node_id":"0.0-19.64-1.64"},{"penalty":1250,"trial_type":"html-keyboard-response","trial_index":153,"time_elapsed":491815,"internal_node_id":"0.0-19.64-1.64"},{"fined":false,"trial_type":"html-keyboard-response","trial_index":153,"time_elapsed":491815,"internal_node_id":"0.0-19.64-1.64"},{"rt":null,"stimulus":"<div style=\"background-color:#6dce98\"><h1 style=\"background-color:MediumSeaGreen\" >You earned 100 coins! Well done!</h1><div style=\"background-color:#6dce98\"><h1 style=\"background-color:MediumSeaGreen\" >Only 3800 left to go!</h1><img id=\"box\" src=\"img/prizes/coins2.png\"></img><img id=\"box\" src=\"img/empty/greenopenbox.png\"></img></div>","key_press":null,"trial_type":"html-keyboard-response","trial_index":153,"time_elapsed":494816,"internal_node_id":"0.0-19.64-1.64"},{"rt":434.1899999999441,"stimulus":"<p>Choose a box,</p>","button_pressed":1,"trial_type":"html-button-response","trial_index":154,"time_elapsed":495251,"internal_node_id":"0.0-19.65-0.65"},{"reward":100,"trial_type":"html-keyboard-response","trial_index":155,"time_elapsed":495251,"internal_node_id":"0.0-19.65-1.65"},{"penalty":1250,"trial_type":"html-keyboard-response","trial_index":155,"time_elapsed":495251,"internal_node_id":"0.0-19.65-1.65"},{"fined":false,"trial_type":"html-keyboard-response","trial_index":155,"time_elapsed":495251,"internal_node_id":"0.0-19.65-1.65"},{"rt":null,"stimulus":"<div style=\"background-color:#6dce98\"><h1 style=\"background-color:MediumSeaGreen\" >You earned 100 coins! Well done!</h1><div style=\"background-color:#6dce98\"><h1 style=\"background-color:MediumSeaGreen\" >Only 3700 left to go!</h1><img id=\"box\" src=\"img/prizes/coins2.png\"></img><img id=\"box\" src=\"img/empty/greenopenbox.png\"></img></div>","key_press":null,"trial_type":"html-keyboard-response","trial_index":155,"time_elapsed":498254,"internal_node_id":"0.0-19.65-1.65"},{"rt":435.93500000133645,"stimulus":"<p>Choose a box,</p>","button_pressed":1,"trial_type":"html-button-response","trial_index":156,"time_elapsed":498690,"internal_node_id":"0.0-19.66-0.66"},{"reward":100,"trial_type":"html-keyboard-response","trial_index":157,"time_elapsed":498690,"internal_node_id":"0.0-19.66-1.66"},{"penalty":1250,"trial_type":"html-keyboard-response","trial_index":157,"time_elapsed":498690,"internal_node_id":"0.0-19.66-1.66"},{"fined":false,"trial_type":"html-keyboard-response","trial_index":157,"time_elapsed":498690,"internal_node_id":"0.0-19.66-1.66"},{"rt":null,"stimulus":"<div style=\"background-color:#6dce98\"><h1 style=\"background-color:MediumSeaGreen\" >You earned 100 coins! Well done!</h1><div style=\"background-color:#6dce98\"><h1 style=\"background-color:MediumSeaGreen\" >Only 3600 left to go!</h1><img id=\"box\" src=\"img/prizes/coins2.png\"></img><img id=\"box\" src=\"img/empty/greenopenbox.png\"></img></div>","key_press":null,"trial_type":"html-keyboard-response","trial_index":157,"time_elapsed":501692,"internal_node_id":"0.0-19.66-1.66"},{"rt":163.67999999783933,"stimulus":"<p>Choose a box,</p>","button_pressed":1,"trial_type":"html-button-response","trial_index":158,"time_elapsed":501857,"internal_node_id":"0.0-19.67-0.67"},{"reward":100,"trial_type":"html-keyboard-response","trial_index":159,"time_elapsed":501857,"internal_node_id":"0.0-19.67-1.67"},{"penalty":1250,"trial_type":"html-keyboard-response","trial_index":159,"time_elapsed":501857,"internal_node_id":"0.0-19.67-1.67"},{"fined":false,"trial_type":"html-keyboard-response","trial_index":159,"time_elapsed":501857,"internal_node_id":"0.0-19.67-1.67"},{"rt":null,"stimulus":"<div style=\"background-color:#6dce98\"><h1 style=\"background-color:MediumSeaGreen\" >You earned 100 coins! Well done!</h1><div style=\"background-color:#6dce98\"><h1 style=\"background-color:MediumSeaGreen\" >Only 3500 left to go!</h1><img id=\"box\" src=\"img/prizes/coins2.png\"></img><img id=\"box\" src=\"img/empty/greenopenbox.png\"></img></div>","key_press":null,"trial_type":"html-keyboard-response","trial_index":159,"time_elapsed":504859,"internal_node_id":"0.0-19.67-1.67"},{"rt":359.84999999345746,"stimulus":"<p>Choose a box,</p>","button_pressed":1,"trial_type":"html-button-response","trial_index":160,"time_elapsed":505220,"internal_node_id":"0.0-19.68-0.68"},{"reward":100,"trial_type":"html-keyboard-response","trial_index":161,"time_elapsed":505220,"internal_node_id":"0.0-19.68-1.68"},{"penalty":1250,"trial_type":"html-keyboard-response","trial_index":161,"time_elapsed":505220,"internal_node_id":"0.0-19.68-1.68"},{"fined":false,"trial_type":"html-keyboard-response","trial_index":161,"time_elapsed":505220,"internal_node_id":"0.0-19.68-1.68"},{"rt":null,"stimulus":"<div style=\"background-color:#6dce98\"><h1 style=\"background-color:MediumSeaGreen\" >You earned 100 coins! Well done!</h1><div style=\"background-color:#6dce98\"><h1 style=\"background-color:MediumSeaGreen\" >Only 3400 left to go!</h1><img id=\"box\" src=\"img/prizes/coins2.png\"></img><img id=\"box\" src=\"img/empty/greenopenbox.png\"></img></div>","key_press":null,"trial_type":"html-keyboard-response","trial_index":161,"time_elapsed":508224,"internal_node_id":"0.0-19.68-1.68"},{"rt":394.2499999975553,"stimulus":"<p>Choose a box,</p>","button_pressed":0,"trial_type":"html-button-response","trial_index":162,"time_elapsed":508619,"internal_node_id":"0.0-19.69-0.69"},{"reward":100,"trial_type":"html-keyboard-response","trial_index":163,"time_elapsed":508619,"internal_node_id":"0.0-19.69-1.69"},{"penalty":250,"trial_type":"html-keyboard-response","trial_index":163,"time_elapsed":508619,"internal_node_id":"0.0-19.69-1.69"},{"fined":true,"trial_type":"html-keyboard-response","trial_index":163,"time_elapsed":508619,"internal_node_id":"0.0-19.69-1.69"},{"rt":null,"stimulus":"<div style=\"background-color:#ff7157\"><h1 style=\"background-color:MediumSeaGreen\">You earned 100 coins</h1><h1 h1 style=\"background-color:Tomato\">but you have recieved a fine of 250 coins</h1><h1 style=\"background-color:Tomato\">Remember, you need to keep going until you have 3000 coins!</h1><img id=\"box\" src=\"img/prizes/250.png\"></img><img id=\"box\" src=\"img/sad/blueopenboxsadthumb.png\"></img></div>","key_press":null,"trial_type":"html-keyboard-response","trial_index":163,"time_elapsed":511621,"internal_node_id":"0.0-19.69-1.69"},{"rt":382.4849999946309,"stimulus":"<p>Choose a box,</p>","button_pressed":1,"trial_type":"html-button-response","trial_index":164,"time_elapsed":512004,"internal_node_id":"0.0-19.70-0.70"},{"reward":100,"trial_type":"html-keyboard-response","trial_index":165,"time_elapsed":512005,"internal_node_id":"0.0-19.70-1.70"},{"penalty":1250,"trial_type":"html-keyboard-response","trial_index":165,"time_elapsed":512005,"internal_node_id":"0.0-19.70-1.70"},{"fined":false,"trial_type":"html-keyboard-response","trial_index":165,"time_elapsed":512005,"internal_node_id":"0.0-19.70-1.70"},{"rt":null,"stimulus":"<div style=\"background-color:#6dce98\"><h1 style=\"background-color:MediumSeaGreen\" >You earned 100 coins! Well done!</h1><div style=\"background-color:#6dce98\"><h1 style=\"background-color:MediumSeaGreen\" >Only 3450 left to go!</h1><img id=\"box\" src=\"img/prizes/coins2.png\"></img><img id=\"box\" src=\"img/empty/greenopenbox.png\"></img></div>","key_press":null,"trial_type":"html-keyboard-response","trial_index":165,"time_elapsed":515008,"internal_node_id":"0.0-19.70-1.70"},{"rt":380.10000000940636,"stimulus":"<p>Choose a box,</p>","button_pressed":1,"trial_type":"html-button-response","trial_index":166,"time_elapsed":515389,"internal_node_id":"0.0-19.71-0.71"},{"reward":100,"trial_type":"html-keyboard-response","trial_index":167,"time_elapsed":515389,"internal_node_id":"0.0-19.71-1.71"},{"penalty":1250,"trial_type":"html-keyboard-response","trial_index":167,"time_elapsed":515389,"internal_node_id":"0.0-19.71-1.71"},{"fined":false,"trial_type":"html-keyboard-response","trial_index":167,"time_elapsed":515389,"internal_node_id":"0.0-19.71-1.71"},{"rt":null,"stimulus":"<div style=\"background-color:#6dce98\"><h1 style=\"background-color:MediumSeaGreen\" >You earned 100 coins! Well done!</h1><div style=\"background-color:#6dce98\"><h1 style=\"background-color:MediumSeaGreen\" >Only 3350 left to go!</h1><img id=\"box\" src=\"img/prizes/coins2.png\"></img><img id=\"box\" src=\"img/empty/greenopenbox.png\"></img></div>","key_press":null,"trial_type":"html-keyboard-response","trial_index":167,"time_elapsed":518391,"internal_node_id":"0.0-19.71-1.71"},{"rt":299.0399999980582,"stimulus":"<p>Choose a box,</p>","button_pressed":1,"trial_type":"html-button-response","trial_index":168,"time_elapsed":518691,"internal_node_id":"0.0-19.72-0.72"},{"reward":100,"trial_type":"html-keyboard-response","trial_index":169,"time_elapsed":518691,"internal_node_id":"0.0-19.72-1.72"},{"penalty":1250,"trial_type":"html-keyboard-response","trial_index":169,"time_elapsed":518691,"internal_node_id":"0.0-19.72-1.72"},{"fined":false,"trial_type":"html-keyboard-response","trial_index":169,"time_elapsed":518691,"internal_node_id":"0.0-19.72-1.72"},{"rt":null,"stimulus":"<div style=\"background-color:#6dce98\"><h1 style=\"background-color:MediumSeaGreen\" >You earned 100 coins! Well done!</h1><div style=\"background-color:#6dce98\"><h1 style=\"background-color:MediumSeaGreen\" >Only 3250 left to go!</h1><img id=\"box\" src=\"img/prizes/coins2.png\"></img><img id=\"box\" src=\"img/empty/greenopenbox.png\"></img></div>","key_press":null,"trial_type":"html-keyboard-response","trial_index":169,"time_elapsed":521693,"internal_node_id":"0.0-19.72-1.72"},{"rt":472.86999999778345,"stimulus":"<p>Choose a box,</p>","button_pressed":1,"trial_type":"html-button-response","trial_index":170,"time_elapsed":522166,"internal_node_id":"0.0-19.73-0.73"},{"reward":100,"trial_type":"html-keyboard-response","trial_index":171,"time_elapsed":522166,"internal_node_id":"0.0-19.73-1.73"},{"penalty":1250,"trial_type":"html-keyboard-response","trial_index":171,"time_elapsed":522166,"internal_node_id":"0.0-19.73-1.73"},{"fined":false,"trial_type":"html-keyboard-response","trial_index":171,"time_elapsed":522166,"internal_node_id":"0.0-19.73-1.73"},{"rt":null,"stimulus":"<div style=\"background-color:#6dce98\"><h1 style=\"background-color:MediumSeaGreen\" >You earned 100 coins! Well done!</h1><div style=\"background-color:#6dce98\"><h1 style=\"background-color:MediumSeaGreen\" >Only 3150 left to go!</h1><img id=\"box\" src=\"img/prizes/coins2.png\"></img><img id=\"box\" src=\"img/empty/greenopenbox.png\"></img></div>","key_press":null,"trial_type":"html-keyboard-response","trial_index":171,"time_elapsed":525169,"internal_node_id":"0.0-19.73-1.73"},{"rt":356.7499999917345,"stimulus":"<p>Choose a box,</p>","button_pressed":1,"trial_type":"html-button-response","trial_index":172,"time_elapsed":525526,"internal_node_id":"0.0-19.74-0.74"},{"reward":100,"trial_type":"html-keyboard-response","trial_index":173,"time_elapsed":525526,"internal_node_id":"0.0-19.74-1.74"},{"penalty":1250,"trial_type":"html-keyboard-response","trial_index":173,"time_elapsed":525526,"internal_node_id":"0.0-19.74-1.74"},{"fined":false,"trial_type":"html-keyboard-response","trial_index":173,"time_elapsed":525526,"internal_node_id":"0.0-19.74-1.74"},{"rt":null,"stimulus":"<div style=\"background-color:#6dce98\"><h1 style=\"background-color:MediumSeaGreen\" >You earned 100 coins! Well done!</h1><div style=\"background-color:#6dce98\"><h1 style=\"background-color:MediumSeaGreen\" >Only 3050 left to go!</h1><img id=\"box\" src=\"img/prizes/coins2.png\"></img><img id=\"box\" src=\"img/empty/greenopenbox.png\"></img></div>","key_press":null,"trial_type":"html-keyboard-response","trial_index":173,"time_elapsed":528528,"internal_node_id":"0.0-19.74-1.74"},{"rt":530.1750000071479,"stimulus":"<p>Choose a box,</p>","button_pressed":2,"trial_type":"html-button-response","trial_index":174,"time_elapsed":529059,"internal_node_id":"0.0-19.75-0.75"},{"reward":50,"trial_type":"html-keyboard-response","trial_index":175,"time_elapsed":529059,"internal_node_id":"0.0-19.75-1.75"},{"penalty":50,"trial_type":"html-keyboard-response","trial_index":175,"time_elapsed":529059,"internal_node_id":"0.0-19.75-1.75"},{"fined":true,"trial_type":"html-keyboard-response","trial_index":175,"time_elapsed":529059,"internal_node_id":"0.0-19.75-1.75"},{"rt":null,"stimulus":"<div style=\"background-color:#ff7157\"><h1 style=\"background-color:MediumSeaGreen\">You earned 50 coins</h1><h1 h1 style=\"background-color:Tomato\">but you have recieved a fine of 50 coins</h1><h1 style=\"background-color:Tomato\">Remember, you need to keep going until you have 3000 coins!</h1><img id=\"box\" src=\"img/prizes/50.png\"></img><img id=\"box\" src=\"img/sad/purpleopenboxsadthumb.png\"></img></div>","key_press":null,"trial_type":"html-keyboard-response","trial_index":175,"time_elapsed":532061,"internal_node_id":"0.0-19.75-1.75"},{"rt":416.46000000764616,"stimulus":"<p>Choose a box,</p>","button_pressed":1,"trial_type":"html-button-response","trial_index":176,"time_elapsed":532478,"internal_node_id":"0.0-19.76-0.76"},{"reward":100,"trial_type":"html-keyboard-response","trial_index":177,"time_elapsed":532478,"internal_node_id":"0.0-19.76-1.76"},{"penalty":1250,"trial_type":"html-keyboard-response","trial_index":177,"time_elapsed":532478,"internal_node_id":"0.0-19.76-1.76"},{"fined":false,"trial_type":"html-keyboard-response","trial_index":177,"time_elapsed":532478,"internal_node_id":"0.0-19.76-1.76"},{"rt":null,"stimulus":"<div style=\"background-color:#6dce98\"><h1 style=\"background-color:MediumSeaGreen\" >You earned 100 coins! Well done!</h1><div style=\"background-color:#6dce98\"><h1 style=\"background-color:MediumSeaGreen\" >Only 2950 left to go!</h1><img id=\"box\" src=\"img/prizes/coins2.png\"></img><img id=\"box\" src=\"img/empty/greenopenbox.png\"></img></div>","key_press":null,"trial_type":"html-keyboard-response","trial_index":177,"time_elapsed":535480,"internal_node_id":"0.0-19.76-1.76"},{"rt":319.5549999945797,"stimulus":"<p>Choose a box,</p>","button_pressed":1,"trial_type":"html-button-response","trial_index":178,"time_elapsed":535801,"internal_node_id":"0.0-19.77-0.77"},{"reward":100,"trial_type":"html-keyboard-response","trial_index":179,"time_elapsed":535801,"internal_node_id":"0.0-19.77-1.77"},{"penalty":1250,"trial_type":"html-keyboard-response","trial_index":179,"time_elapsed":535801,"internal_node_id":"0.0-19.77-1.77"},{"fined":false,"trial_type":"html-keyboard-response","trial_index":179,"time_elapsed":535801,"internal_node_id":"0.0-19.77-1.77"},{"rt":null,"stimulus":"<div style=\"background-color:#6dce98\"><h1 style=\"background-color:MediumSeaGreen\" >You earned 100 coins! Well done!</h1><div style=\"background-color:#6dce98\"><h1 style=\"background-color:MediumSeaGreen\" >Only 2850 left to go!</h1><img id=\"box\" src=\"img/prizes/coins2.png\"></img><img id=\"box\" src=\"img/empty/greenopenbox.png\"></img></div>","key_press":null,"trial_type":"html-keyboard-response","trial_index":179,"time_elapsed":538804,"internal_node_id":"0.0-19.77-1.77"},{"rt":379.37500000407454,"stimulus":"<p>Choose a box,</p>","button_pressed":1,"trial_type":"html-button-response","trial_index":180,"time_elapsed":539185,"internal_node_id":"0.0-19.78-0.78"},{"reward":100,"trial_type":"html-keyboard-response","trial_index":181,"time_elapsed":539185,"internal_node_id":"0.0-19.78-1.78"},{"penalty":1250,"trial_type":"html-keyboard-response","trial_index":181,"time_elapsed":539185,"internal_node_id":"0.0-19.78-1.78"},{"fined":false,"trial_type":"html-keyboard-response","trial_index":181,"time_elapsed":539185,"internal_node_id":"0.0-19.78-1.78"},{"rt":null,"stimulus":"<div style=\"background-color:#6dce98\"><h1 style=\"background-color:MediumSeaGreen\" >You earned 100 coins! Well done!</h1><div style=\"background-color:#6dce98\"><h1 style=\"background-color:MediumSeaGreen\" >Only 2750 left to go!</h1><img id=\"box\" src=\"img/prizes/coins2.png\"></img><img id=\"box\" src=\"img/empty/greenopenbox.png\"></img></div>","key_press":null,"trial_type":"html-keyboard-response","trial_index":181,"time_elapsed":542187,"internal_node_id":"0.0-19.78-1.78"},{"rt":363.1699999968987,"stimulus":"<p>Choose a box,</p>","button_pressed":1,"trial_type":"html-button-response","trial_index":182,"time_elapsed":542551,"internal_node_id":"0.0-19.79-0.79"},{"reward":100,"trial_type":"html-keyboard-response","trial_index":183,"time_elapsed":542552,"internal_node_id":"0.0-19.79-1.79"},{"penalty":1250,"trial_type":"html-keyboard-response","trial_index":183,"time_elapsed":542552,"internal_node_id":"0.0-19.79-1.79"},{"fined":false,"trial_type":"html-keyboard-response","trial_index":183,"time_elapsed":542552,"internal_node_id":"0.0-19.79-1.79"},{"rt":null,"stimulus":"<div style=\"background-color:#6dce98\"><h1 style=\"background-color:MediumSeaGreen\" >You earned 100 coins! Well done!</h1><div style=\"background-color:#6dce98\"><h1 style=\"background-color:MediumSeaGreen\" >Only 2650 left to go!</h1><img id=\"box\" src=\"img/prizes/coins2.png\"></img><img id=\"box\" src=\"img/empty/greenopenbox.png\"></img></div>","key_press":null,"trial_type":"html-keyboard-response","trial_index":183,"time_elapsed":545555,"internal_node_id":"0.0-19.79-1.79"},{"rt":384.6400000038557,"stimulus":"<p>Choose a box,</p>","button_pressed":1,"trial_type":"html-button-response","trial_index":184,"time_elapsed":545941,"internal_node_id":"0.0-19.80-0.80"},{"reward":100,"trial_type":"html-keyboard-response","trial_index":185,"time_elapsed":545941,"internal_node_id":"0.0-19.80-1.80"},{"penalty":1250,"trial_type":"html-keyboard-response","trial_index":185,"time_elapsed":545941,"internal_node_id":"0.0-19.80-1.80"},{"fined":false,"trial_type":"html-keyboard-response","trial_index":185,"time_elapsed":545941,"internal_node_id":"0.0-19.80-1.80"},{"rt":null,"stimulus":"<div style=\"background-color:#6dce98\"><h1 style=\"background-color:MediumSeaGreen\" >You earned 100 coins! Well done!</h1><div style=\"background-color:#6dce98\"><h1 style=\"background-color:MediumSeaGreen\" >Only 2550 left to go!</h1><img id=\"box\" src=\"img/prizes/coins2.png\"></img><img id=\"box\" src=\"img/empty/greenopenbox.png\"></img></div>","key_press":null,"trial_type":"html-keyboard-response","trial_index":185,"time_elapsed":548942,"internal_node_id":"0.0-19.80-1.80"},{"rt":354.16499999701045,"stimulus":"<p>Choose a box,</p>","button_pressed":2,"trial_type":"html-button-response","trial_index":186,"time_elapsed":549297,"internal_node_id":"0.0-19.81-0.81"},{"reward":50,"trial_type":"html-keyboard-response","trial_index":187,"time_elapsed":549297,"internal_node_id":"0.0-19.81-1.81"},{"penalty":50,"trial_type":"html-keyboard-response","trial_index":187,"time_elapsed":549297,"internal_node_id":"0.0-19.81-1.81"},{"fined":true,"trial_type":"html-keyboard-response","trial_index":187,"time_elapsed":549297,"internal_node_id":"0.0-19.81-1.81"},{"rt":null,"stimulus":"<div style=\"background-color:#ff7157\"><h1 style=\"background-color:MediumSeaGreen\">You earned 50 coins</h1><h1 h1 style=\"background-color:Tomato\">but you have recieved a fine of 50 coins</h1><h1 style=\"background-color:Tomato\">Remember, you need to keep going until you have 3000 coins!</h1><img id=\"box\" src=\"img/prizes/50.png\"></img><img id=\"box\" src=\"img/sad/purpleopenboxsadthumb.png\"></img></div>","key_press":null,"trial_type":"html-keyboard-response","trial_index":187,"time_elapsed":552298,"internal_node_id":"0.0-19.81-1.81"},{"rt":885.2850000112085,"stimulus":"<p>Choose a box,</p>","button_pressed":1,"trial_type":"html-button-response","trial_index":188,"time_elapsed":553184,"internal_node_id":"0.0-19.82-0.82"},{"reward":100,"trial_type":"html-keyboard-response","trial_index":189,"time_elapsed":553185,"internal_node_id":"0.0-19.82-1.82"},{"penalty":1250,"trial_type":"html-keyboard-response","trial_index":189,"time_elapsed":553185,"internal_node_id":"0.0-19.82-1.82"},{"fined":true,"trial_type":"html-keyboard-response","trial_index":189,"time_elapsed":553185,"internal_node_id":"0.0-19.82-1.82"},{"rt":null,"stimulus":"<div style=\"background-color:#ff7157\"><h1 style=\"background-color:MediumSeaGreen\">You earned 100 coins</h1><h1 h1 style=\"background-color:Tomato\">but you have recieved a fine of 1250 coins</h1><h1 style=\"background-color:Tomato\">Remember, you need to keep going until you have 3000 coins!</h1><img id=\"box\" src=\"img/prizes/1250.png\"></img><img id=\"box\" src=\"img/sad/greenopenboxsadthumb.png\"></img></div>","key_press":null,"trial_type":"html-keyboard-response","trial_index":189,"time_elapsed":556186,"internal_node_id":"0.0-19.82-1.82"},{"rt":434.1450000065379,"stimulus":"<p>Choose a box,</p>","button_pressed":2,"trial_type":"html-button-response","trial_index":190,"time_elapsed":556621,"internal_node_id":"0.0-19.83-0.83"},{"reward":50,"trial_type":"html-keyboard-response","trial_index":191,"time_elapsed":556621,"internal_node_id":"0.0-19.83-1.83"},{"penalty":50,"trial_type":"html-keyboard-response","trial_index":191,"time_elapsed":556621,"internal_node_id":"0.0-19.83-1.83"},{"fined":false,"trial_type":"html-keyboard-response","trial_index":191,"time_elapsed":556621,"internal_node_id":"0.0-19.83-1.83"},{"rt":null,"stimulus":"<div style=\"background-color:#6dce98\"><h1 style=\"background-color:MediumSeaGreen\" >You earned 50 coins! Well done!</h1><div style=\"background-color:#6dce98\"><h1 style=\"background-color:MediumSeaGreen\" >Only 3650 left to go!</h1><img id=\"box\" src=\"img/prizes/coins.png\"></img><img id=\"box\" src=\"img/empty/purpleopenbox.png\"></img></div>","key_press":null,"trial_type":"html-keyboard-response","trial_index":191,"time_elapsed":559623,"internal_node_id":"0.0-19.83-1.83"