[{"view_history":"[{\"page_index\":0,\"viewing_time\":9015},{\"page_index\":1,\"viewing_time\":4943},{\"page_index\":2,\"viewing_time\":24112},{\"page_index\":3,\"viewing_time\":15203},{\"page_index\":4,\"viewing_time\":2306},{\"page_index\":5,\"viewing_time\":3800}]","rt":59379,"trial_type":"instructions","trial_index":0,"time_elapsed":59389,"internal_node_id":"0.0-0.0"},{"rt":12333,"responses":"{\"Q0\":\"Yes\",\"Q1\":\"Yes\",\"Q2\":\"Yes\"}","question_order":"[0,1,2]","trial_type":"survey-multi-choice","trial_index":1,"time_elapsed":71726,"internal_node_id":"0.0-1.0-0.0"},{"rt":14482,"responses":"{\"Q0\":\"Yes\",\"Q1\":\"Yes\",\"Q2\":\"Yes\"}","question_order":"[0,1,2]","trial_type":"survey-multi-choice","trial_index":2,"time_elapsed":86212,"internal_node_id":"0.0-2.0-0.0"},{"rt":8859,"responses":"{\"Q0\":\"5ee38a6c0bc82d01daa410f8\"}","trial_type":"survey-text","trial_index":3,"time_elapsed":95076,"internal_node_id":"0.0-3.0"},{"rt":5875,"responses":"{\"Q0\":\"Male\",\"Q1\":\"18-25\"}","question_order":"[0,1]","trial_type":"survey-multi-choice","trial_index":4,"time_elapsed":100952,"internal_node_id":"0.0-4.0"},{"rt":4242,"responses":"{\"Q0\":\"\"}","trial_type":"survey-text","trial_index":5,"time_elapsed":105197,"internal_node_id":"0.0-5.0"},{"view_history":"[{\"page_index\":0,\"viewing_time\":10221}]","rt":10221,"trial_type":"instructions","trial_index":6,"time_elapsed":115419,"internal_node_id":"0.0-6.0"},{"rt":35651,"responses":"{\"Interested\":3,\"Distressed\":1,\"Excited\":2,\"Upset\":1}","question_order":"[0,1,2,3]","trial_type":"survey-likert","trial_index":7,"time_elapsed":151074,"internal_node_id":"0.0-7.0"},{"rt":6616,"responses":"{\"Strong\":2,\"Guilty\":0,\"Scared\":0,\"Hostile\":0}","question_order":"[0,1,2,3]","trial_type":"survey-likert","trial_index":8,"time_elapsed":157693,"internal_node_id":"0.0-8.0"},{"rt":13103,"responses":"{\"Enthusiastic\":1,\"Proud\":2,\"Irritable\":3,\"Alert\":2}","question_order":"[0,1,2,3]","trial_type":"survey-likert","trial_index":9,"time_elapsed":170801,"internal_node_id":"0.0-9.0"},{"rt":8023,"responses":"{\"Ashamed\":0,\"Inspired\":2,\"Nervous\":1,\"Determined\":2}","question_order":"[0,1,2,3]","trial_type":"survey-likert","trial_index":10,"time_elapsed":178825,"internal_node_id":"0.0-10.0"},{"rt":21051,"responses":"{\"Attentive\":2,\"Jittery\":0,\"Active\":1,\"Afraid\":0}","question_order":"[0,1,2,3]","trial_type":"survey-likert","trial_index":11,"time_elapsed":199880,"internal_node_id":"0.0-11.0"},{"rt":28933,"responses":"{\"Q0\":1,\"Q1\":1,\"Q2\":1,\"Q3\":1}","question_order":"[0,1,2,3]","trial_type":"survey-likert","trial_index":12,"time_elapsed":228818,"internal_node_id":"0.0-12.0"},{"rt":26537,"responses":"{\"Q0\":0,\"Q1\":0,\"Q2\":0,\"Q3\":0}","question_order":"[0,1,2,3]","trial_type":"survey-likert","trial_index":13,"time_elapsed":255360,"internal_node_id":"0.0-13.0"},{"rt":19314,"responses":"{\"Q0\":1,\"Q1\":0,\"Q2\":0,\"Q3\":1}","question_order":"[0,1,2,3]","trial_type":"survey-likert","trial_index":14,"time_elapsed":274677,"internal_node_id":"0.0-14.0"},{"rt":14462,"responses":"{\"Q0\":0,\"Q1\":2,\"Q2\":0}","question_order":"[0,1,2]","trial_type":"survey-likert","trial_index":15,"time_elapsed":289142,"internal_node_id":"0.0-15.0"},{"view_history":"[{\"page_index\":0,\"viewing_time\":2748},{\"page_index\":1,\"viewing_time\":12345},{\"page_index\":2,\"viewing_time\":7479}]","rt":22572,"trial_type":"instructions","trial_index":16,"time_elapsed":311718,"internal_node_id":"0.0-16.0"},{"rt":2073,"stimulus":"<p>Choose a box,</p>","button_pressed":3,"trial_type":"html-button-response","trial_index":17,"time_elapsed":313794,"internal_node_id":"0.0-17.0-0.0"},{"rate":0.14666777203456363,"trial_type":"html-keyboard-response","trial_index":18,"time_elapsed":313795,"internal_node_id":"0.0-17.0-1.0"},{"rt":null,"stimulus":"<div style=\"background-color:#ff7157\"><h1 style=\"background-color:Tomato\">Bad luck! There was no prize in the box!</h1><h1 style=\"background-color:Tomato\">Remember, you need to keep going until you have 20 prizes!</h1><img id=\"box\" src=\"img/sad/redopenboxsadthumb.png\"></img></div>","key_press":null,"trial_type":"html-keyboard-response","trial_index":18,"time_elapsed":315298,"internal_node_id":"0.0-17.0-1.0"},{"rt":2444,"stimulus":"<p>Choose a box,</p>","button_pressed":3,"trial_type":"html-button-response","trial_index":19,"time_elapsed":317743,"internal_node_id":"0.0-17.0-0.1"},{"rate":0.14666777203456363,"trial_type":"html-keyboard-response","trial_index":20,"time_elapsed":317743,"internal_node_id":"0.0-17.0-1.1"},{"rt":null,"stimulus":"<div style=\"background-color:#ff7157\"><h1 style=\"background-color:Tomato\">Bad luck! There was no prize in the box!</h1><h1 style=\"background-color:Tomato\">Remember, you need to keep going until you have 20 prizes!</h1><img id=\"box\" src=\"img/sad/redopenboxsadthumb.png\"></img></div>","key_press":null,"trial_type":"html-keyboard-response","trial_index":20,"time_elapsed":319246,"internal_node_id":"0.0-17.0-1.1"},{"rt":832,"stimulus":"<p>Choose a box,</p>","button_pressed":2,"trial_type":"html-button-response","trial_index":21,"time_elapsed":320080,"internal_node_id":"0.0-17.0-0.2"},{"rate":0.42380397326617425,"trial_type":"html-keyboard-response","trial_index":22,"time_elapsed":320080,"internal_node_id":"0.0-17.0-1.2"},{"rt":null,"stimulus":"<div style=\"background-color:#ff7157\"><h1 style=\"background-color:Tomato\">Bad luck! There was no prize in the box!</h1><h1 style=\"background-color:Tomato\">Remember, you need to keep going until you have 20 prizes!</h1><img id=\"box\" src=\"img/sad/purpleopenboxsadthumb.png\"></img></div>","key_press":null,"trial_type":"html-keyboard-response","trial_index":22,"time_elapsed":321591,"internal_node_id":"0.0-17.0-1.2"},{"view_history":"[{\"page_index\":0,\"viewing_time\":17427}]","rt":17427,"trial_type":"instructions","trial_index":23,"time_elapsed":339021,"internal_node_id":"0.0-18.0"},{"rt":2396,"stimulus":"<p>Choose a box,</p>","button_pressed":3,"trial_type":"html-button-response","trial_index":24,"time_elapsed":341418,"internal_node_id":"0.0-19.0-0.0"},{"rate":0.763145459257345,"trial_type":"html-keyboard-response","trial_index":25,"time_elapsed":341418,"internal_node_id":"0.0-19.0-1.0"},{"rt":null,"stimulus":"<div style=\"background-color:#6dce98\"><h1 style=\"background-color:MediumSeaGreen\" >You won a prize! Well done!</h1><div style=\"background-color:#6dce98\"><h1 style=\"background-color:MediumSeaGreen\" >Only 19 left to go!</h1><img id=\"box\" src=\"img/prizes/ring.png\"></img><img id=\"box\" src=\"img/empty/redopenbox.png\"></img></div>","key_press":null,"trial_type":"html-keyboard-response","trial_index":25,"time_elapsed":342919,"internal_node_id":"0.0-19.0-1.0"},{"rt":2577,"stimulus":"<p>Choose a box,</p>","button_pressed":0,"trial_type":"html-button-response","trial_index":26,"time_elapsed":345497,"internal_node_id":"0.0-19.1-0.1"},{"rate":0.1930180193856943,"trial_type":"html-keyboard-response","trial_index":27,"time_elapsed":345498,"internal_node_id":"0.0-19.1-1.1"},{"rt":null,"stimulus":"<div style=\"background-color:#ff7157\"><h1 style=\"background-color:Tomato\">Bad luck! There was no prize in the box!</h1><h1 style=\"background-color:Tomato\">Remember, you need to keep going until you have 20 prizes!</h1><img id=\"box\" src=\"img/sad/blueopenboxsadthumb.png\"></img></div>","key_press":null,"trial_type":"html-keyboard-response","trial_index":27,"time_elapsed":347001,"internal_node_id":"0.0-19.1-1.1"},{"rt":1791,"stimulus":"<p>Choose a box,</p>","button_pressed":0,"trial_type":"html-button-response","trial_index":28,"time_elapsed":348794,"internal_node_id":"0.0-19.2-0.2"},{"rate":0.1930180193856943,"trial_type":"html-keyboard-response","trial_index":29,"time_elapsed":348794,"internal_node_id":"0.0-19.2-1.2"},{"rt":null,"stimulus":"<div style=\"background-color:#ff7157\"><h1 style=\"background-color:Tomato\">Bad luck! There was no prize in the box!</h1><h1 style=\"background-color:Tomato\">Remember, you need to keep going until you have 20 prizes!</h1><img id=\"box\" src=\"img/sad/blueopenboxsadthumb.png\"></img></div>","key_press":null,"trial_type":"html-keyboard-response","trial_index":29,"time_elapsed":350299,"internal_node_id":"0.0-19.2-1.2"},{"rt":2016,"stimulus":"<p>Choose a box,</p>","button_pressed":1,"trial_type":"html-button-response","trial_index":30,"time_elapsed":352314,"internal_node_id":"0.0-19.3-0.3"},{"rate":0.4523658665725032,"trial_type":"html-keyboard-response","trial_index":31,"time_elapsed":352315,"internal_node_id":"0.0-19.3-1.3"},{"rt":null,"stimulus":"<div style=\"background-color:#ff7157\"><h1 style=\"background-color:Tomato\">Bad luck! There was no prize in the box!</h1><h1 style=\"background-color:Tomato\">Remember, you need to keep going until you have 20 prizes!</h1><img id=\"box\" src=\"img/sad/greenopenboxsadthumb.png\"></img></div>","key_press":null,"trial_type":"html-keyboard-response","trial_index":31,"time_elapsed":353830,"internal_node_id":"0.0-19.3-1.3"},{"rt":1285,"stimulus":"<p>Choose a box,</p>","button_pressed":2,"trial_type":"html-button-response","trial_index":32,"time_elapsed":355117,"internal_node_id":"0.0-19.4-0.4"},{"rate":0.5944824927784662,"trial_type":"html-keyboard-response","trial_index":33,"time_elapsed":355117,"internal_node_id":"0.0-19.4-1.4"},{"rt":null,"stimulus":"<div style=\"background-color:#6dce98\"><h1 style=\"background-color:MediumSeaGreen\" >You won a prize! Well done!</h1><div style=\"background-color:#6dce98\"><h1 style=\"background-color:MediumSeaGreen\" >Only 18 left to go!</h1><img id=\"box\" src=\"img/prizes/lolipop.png\"></img><img id=\"box\" src=\"img/empty/purpleopenbox.png\"></img></div>","key_press":null,"trial_type":"html-keyboard-response","trial_index":33,"time_elapsed":356627,"internal_node_id":"0.0-19.4-1.4"},{"rt":422,"stimulus":"<p>Choose a box,</p>","button_pressed":2,"trial_type":"html-button-response","trial_index":34,"time_elapsed":357051,"internal_node_id":"0.0-19.5-0.5"},{"rate":0.5944824927784662,"trial_type":"html-keyboard-response","trial_index":35,"time_elapsed":357051,"internal_node_id":"0.0-19.5-1.5"},{"rt":null,"stimulus":"<div style=\"background-color:#ff7157\"><h1 style=\"background-color:Tomato\">Bad luck! There was no prize in the box!</h1><h1 style=\"background-color:Tomato\">Remember, you need to keep going until you have 20 prizes!</h1><img id=\"box\" src=\"img/sad/purpleopenboxsadthumb.png\"></img></div>","key_press":null,"trial_type":"html-keyboard-response","trial_index":35,"time_elapsed":358561,"internal_node_id":"0.0-19.5-1.5"},{"rt":388,"stimulus":"<p>Choose a box,</p>","button_pressed":3,"trial_type":"html-button-response","trial_index":36,"time_elapsed":358951,"internal_node_id":"0.0-19.6-0.6"},{"rate":0.763145459257345,"trial_type":"html-keyboard-response","trial_index":37,"time_elapsed":358951,"internal_node_id":"0.0-19.6-1.6"},{"rt":null,"stimulus":"<div style=\"background-color:#ff7157\"><h1 style=\"background-color:Tomato\">Bad luck! There was no prize in the box!</h1><h1 style=\"background-color:Tomato\">Remember, you need to keep going until you have 20 prizes!</h1><img id=\"box\" src=\"img/sad/redopenboxsadthumb.png\"></img></div>","key_press":null,"trial_type":"html-keyboard-response","trial_index":37,"time_elapsed":360454,"internal_node_id":"0.0-19.6-1.6"},{"rt":340,"stimulus":"<p>Choose a box,</p>","button_pressed":2,"trial_type":"html-button-response","trial_index":38,"time_elapsed":360796,"internal_node_id":"0.0-19.7-0.7"},{"rate":0.5944824927784662,"trial_type":"html-keyboard-response","trial_index":39,"time_elapsed":360796,"internal_node_id":"0.0-19.7-1.7"},{"rt":null,"stimulus":"<div style=\"background-color:#ff7157\"><h1 style=\"background-color:Tomato\">Bad luck! There was no prize in the box!</h1><h1 style=\"background-color:Tomato\">Remember, you need to keep going until you have 20 prizes!</h1><img id=\"box\" src=\"img/sad/purpleopenboxsadthumb.png\"></img></div>","key_press":null,"trial_type":"html-keyboard-response","trial_index":39,"time_elapsed":362308,"internal_node_id":"0.0-19.7-1.7"},{"rt":2819,"stimulus":"<p>Choose a box,</p>","button_pressed":1,"trial_type":"html-button-response","trial_index":40,"time_elapsed":365128,"internal_node_id":"0.0-19.8-0.8"},{"rate":0.4523658665725032,"trial_type":"html-keyboard-response","trial_index":41,"time_elapsed":365128,"internal_node_id":"0.0-19.8-1.8"},{"rt":null,"stimulus":"<div style=\"background-color:#ff7157\"><h1 style=\"background-color:Tomato\">Bad luck! There was no prize in the box!</h1><h1 style=\"background-color:Tomato\">Remember, you need to keep going until you have 20 prizes!</h1><img id=\"box\" src=\"img/sad/greenopenboxsadthumb.png\"></img></div>","key_press":null,"trial_type":"html-keyboard-response","trial_index":41,"time_elapsed":366638,"internal_node_id":"0.0-19.8-1.8"},{"rt":1090,"stimulus":"<p>Choose a box,</p>","button_pressed":3,"trial_type":"html-button-response","trial_index":42,"time_elapsed":367728,"internal_node_id":"0.0-19.9-0.9"},{"rate":0.763145459257345,"trial_type":"html-keyboard-response","trial_index":43,"time_elapsed":367729,"internal_node_id":"0.0-19.9-1.9"},{"rt":null,"stimulus":"<div style=\"background-color:#6dce98\"><h1 style=\"background-color:MediumSeaGreen\" >You won a prize! Well done!</h1><div style=\"background-color:#6dce98\"><h1 style=\"background-color:MediumSeaGreen\" >Only 17 left to go!</h1><img id=\"box\" src=\"img/prizes/duck.png\"></img><img id=\"box\" src=\"img/empty/redopenbox.png\"></img></div>","key_press":null,"trial_type":"html-keyboard-response","trial_index":43,"time_elapsed":369239,"internal_node_id":"0.0-19.9-1.9"},{"rt":1421,"stimulus":"<p>Choose a box,</p>","button_pressed":0,"trial_type":"html-button-response","trial_index":44,"time_elapsed":370660,"internal_node_id":"0.0-19.10-0.10"},{"rate":0.1930180193856943,"trial_type":"html-keyboard-response","trial_index":45,"time_elapsed":370660,"internal_node_id":"0.0-19.10-1.10"},{"rt":null,"stimulus":"<div style=\"background-color:#ff7157\"><h1 style=\"background-color:Tomato\">Bad luck! There was no prize in the box!</h1><h1 style=\"background-color:Tomato\">Remember, you need to keep going until you have 20 prizes!</h1><img id=\"box\" src=\"img/sad/blueopenboxsadthumb.png\"></img></div>","key_press":null,"trial_type":"html-keyboard-response","trial_index":45,"time_elapsed":372162,"internal_node_id":"0.0-19.10-1.10"},{"rt":285,"stimulus":"<p>Choose a box,</p>","button_pressed":3,"trial_type":"html-button-response","trial_index":46,"time_elapsed":372447,"internal_node_id":"0.0-19.11-0.11"},{"rate":0.763145459257345,"trial_type":"html-keyboard-response","trial_index":47,"time_elapsed":372447,"internal_node_id":"0.0-19.11-1.11"},{"rt":null,"stimulus":"<div style=\"background-color:#6dce98\"><h1 style=\"background-color:MediumSeaGreen\" >You won a prize! Well done!</h1><div style=\"background-color:#6dce98\"><h1 style=\"background-color:MediumSeaGreen\" >Only 16 left to go!</h1><img id=\"box\" src=\"img/prizes/choc.png\"></img><img id=\"box\" src=\"img/empty/redopenbox.png\"></img></div>","key_press":null,"trial_type":"html-keyboard-response","trial_index":47,"time_elapsed":373961,"internal_node_id":"0.0-19.11-1.11"},{"rt":1093,"stimulus":"<p>Choose a box,</p>","button_pressed":1,"trial_type":"html-button-response","trial_index":48,"time_elapsed":375054,"internal_node_id":"0.0-19.12-0.12"},{"rate":0.4523658665725032,"trial_type":"html-keyboard-response","trial_index":49,"time_elapsed":375054,"internal_node_id":"0.0-19.12-1.12"},{"rt":null,"stimulus":"<div style=\"background-color:#6dce98\"><h1 style=\"background-color:MediumSeaGreen\" >You won a prize! Well done!</h1><div style=\"background-color:#6dce98\"><h1 style=\"background-color:MediumSeaGreen\" >Only 15 left to go!</h1><img id=\"box\" src=\"img/prizes/duck.png\"></img><img id=\"box\" src=\"img/empty/greenopenbox.png\"></img></div>","key_press":null,"trial_type":"html-keyboard-response","trial_index":49,"time_elapsed":376570,"internal_node_id":"0.0-19.12-1.12"},{"rt":3100,"stimulus":"<p>Choose a box,</p>","button_pressed":2,"trial_type":"html-button-response","trial_index":50,"time_elapsed":379671,"internal_node_id":"0.0-19.13-0.13"},{"rate":0.5944824927784662,"trial_type":"html-keyboard-response","trial_index":51,"time_elapsed":379671,"internal_node_id":"0.0-19.13-1.13"},{"rt":null,"stimulus":"<div style=\"background-color:#6dce98\"><h1 style=\"background-color:MediumSeaGreen\" >You won a prize! Well done!</h1><div style=\"background-color:#6dce98\"><h1 style=\"background-color:MediumSeaGreen\" >Only 14 left to go!</h1><img id=\"box\" src=\"img/prizes/beachball.png\"></img><img id=\"box\" src=\"img/empty/purpleopenbox.png\"></img></div>","key_press":null,"trial_type":"html-keyboard-response","trial_index":51,"time_elapsed":381184,"internal_node_id":"0.0-19.13-1.13"},{"rt":1398,"stimulus":"<p>Choose a box,</p>","button_pressed":3,"trial_type":"html-button-response","trial_index":52,"time_elapsed":382583,"internal_node_id":"0.0-19.14-0.14"},{"rate":0.763145459257345,"trial_type":"html-keyboard-response","trial_index":53,"time_elapsed":382584,"internal_node_id":"0.0-19.14-1.14"},{"rt":null,"stimulus":"<div style=\"background-color:#6dce98\"><h1 style=\"background-color:MediumSeaGreen\" >You won a prize! Well done!</h1><div style=\"background-color:#6dce98\"><h1 style=\"background-color:MediumSeaGreen\" >Only 13 left to go!</h1><img id=\"box\" src=\"img/prizes/choc.png\"></img><img id=\"box\" src=\"img/empty/redopenbox.png\"></img></div>","key_press":null,"trial_type":"html-keyboard-response","trial_index":53,"time_elapsed":384095,"internal_node_id":"0.0-19.14-1.14"},{"rt":1219,"stimulus":"<p>Choose a box,</p>","button_pressed":0,"trial_type":"html-button-response","trial_index":54,"time_elapsed":385315,"internal_node_id":"0.0-19.15-0.15"},{"rate":0.1930180193856943,"trial_type":"html-keyboard-response","trial_index":55,"time_elapsed":385315,"internal_node_id":"0.0-19.15-1.15"},{"rt":null,"stimulus":"<div style=\"background-color:#ff7157\"><h1 style=\"background-color:Tomato\">Bad luck! There was no prize in the box!</h1><h1 style=\"background-color:Tomato\">Remember, you need to keep going until you have 20 prizes!</h1><img id=\"box\" src=\"img/sad/blueopenboxsadthumb.png\"></img></div>","key_press":null,"trial_type":"html-keyboard-response","trial_index":55,"time_elapsed":386817,"internal_node_id":"0.0-19.15-1.15"},{"rt":456,"stimulus":"<p>Choose a box,</p>","button_pressed":1,"trial_type":"html-button-response","trial_index":56,"time_elapsed":387274,"internal_node_id":"0.0-19.16-0.16"},{"rate":0.4523658665725032,"trial_type":"html-keyboard-response","trial_index":57,"time_elapsed":387274,"internal_node_id":"0.0-19.16-1.16"},{"rt":null,"stimulus":"<div style=\"background-color:#ff7157\"><h1 style=\"background-color:Tomato\">Bad luck! There was no prize in the box!</h1><h1 style=\"background-color:Tomato\">Remember, you need to keep going until you have 20 prizes!</h1><img id=\"box\" src=\"img/sad/greenopenboxsadthumb.png\"></img></div>","key_press":null,"trial_type":"html-keyboard-response","trial_index":57,"time_elapsed":388785,"internal_node_id":"0.0-19.16-1.16"},{"rt":312,"stimulus":"<p>Choose a box,</p>","button_pressed":0,"trial_type":"html-button-response","trial_index":58,"time_elapsed":389098,"internal_node_id":"0.0-19.17-0.17"},{"rate":0.1930180193856943,"trial_type":"html-keyboard-response","trial_index":59,"time_elapsed":389098,"internal_node_id":"0.0-19.17-1.17"},{"rt":null,"stimulus":"<div style=\"background-color:#ff7157\"><h1 style=\"background-color:Tomato\">Bad luck! There was no prize in the box!</h1><h1 style=\"background-color:Tomato\">Remember, you need to keep going until you have 20 prizes!</h1><img id=\"box\" src=\"img/sad/blueopenboxsadthumb.png\"></img></div>","key_press":null,"trial_type":"html-keyboard-response","trial_index":59,"time_elapsed":390608,"internal_node_id":"0.0-19.17-1.17"},{"rt":1289,"stimulus":"<p>Choose a box,</p>","button_pressed":3,"trial_type":"html-button-response","trial_index":60,"time_elapsed":391897,"internal_node_id":"0.0-19.18-0.18"},{"rate":0.763145459257345,"trial_type":"html-keyboard-response","trial_index":61,"time_elapsed":391897,"internal_node_id":"0.0-19.18-1.18"},{"rt":null,"stimulus":"<div style=\"background-color:#ff7157\"><h1 style=\"background-color:Tomato\">Bad luck! There was no prize in the box!</h1><h1 style=\"background-color:Tomato\">Remember, you need to keep going until you have 20 prizes!</h1><img id=\"box\" src=\"img/sad/redopenboxsadthumb.png\"></img></div>","key_press":null,"trial_type":"html-keyboard-response","trial_index":61,"time_elapsed":393402,"internal_node_id":"0.0-19.18-1.18"},{"rt":290,"stimulus":"<p>Choose a box,</p>","button_pressed":3,"trial_type":"html-button-response","trial_index":62,"time_elapsed":393694,"internal_node_id":"0.0-19.19-0.19"},{"rate":0.763145459257345,"trial_type":"html-keyboard-response","trial_index":63,"time_elapsed":393694,"internal_node_id":"0.0-19.19-1.19"},{"rt":null,"stimulus":"<div style=\"background-color:#6dce98\"><h1 style=\"background-color:MediumSeaGreen\" >You won a prize! Well done!</h1><div style=\"background-color:#6dce98\"><h1 style=\"background-color:MediumSeaGreen\" >Only 12 left to go!</h1><img id=\"box\" src=\"img/prizes/bear.png\"></img><img id=\"box\" src=\"img/empty/redopenbox.png\"></img></div>","key_press":null,"trial_type":"html-keyboard-response","trial_index":63,"time_elapsed":395204,"internal_node_id":"0.0-19.19-1.19"},{"rt":2230,"stimulus":"<p>Choose a box,</p>","button_pressed":2,"trial_type":"html-button-response","trial_index":64,"time_elapsed":397436,"internal_node_id":"0.0-19.20-0.20"},{"rate":0.5944824927784662,"trial_type":"html-keyboard-response","trial_index":65,"time_elapsed":397436,"internal_node_id":"0.0-19.20-1.20"},{"rt":null,"stimulus":"<div style=\"background-color:#6dce98\"><h1 style=\"background-color:MediumSeaGreen\" >You won a prize! Well done!</h1><div style=\"background-color:#6dce98\"><h1 style=\"background-color:MediumSeaGreen\" >Only 11 left to go!</h1><img id=\"box\" src=\"img/prizes/beachball.png\"></img><img id=\"box\" src=\"img/empty/purpleopenbox.png\"></img></div>","key_press":null,"trial_type":"html-keyboard-response","trial_index":65,"time_elapsed":398940,"internal_node_id":"0.0-19.20-1.20"},{"rt":648,"stimulus":"<p>Choose a box,</p>","button_pressed":1,"trial_type":"html-button-response","trial_index":66,"time_elapsed":399588,"internal_node_id":"0.0-19.21-0.21"},{"rate":0.4523658665725032,"trial_type":"html-keyboard-response","trial_index":67,"time_elapsed":399589,"internal_node_id":"0.0-19.21-1.21"},{"rt":null,"stimulus":"<div style=\"background-color:#6dce98\"><h1 style=\"background-color:MediumSeaGreen\" >You won a prize! Well done!</h1><div style=\"background-color:#6dce98\"><h1 style=\"background-color:MediumSeaGreen\" >Only 10 left to go!</h1><img id=\"box\" src=\"img/prizes/ring.png\"></img><img id=\"box\" src=\"img/empty/greenopenbox.png\"></img></div>","key_press":null,"trial_type":"html-keyboard-response","trial_index":67,"time_elapsed":401096,"internal_node_id":"0.0-19.21-1.21"},{"rt":375,"stimulus":"<p>Choose a box,</p>","button_pressed":0,"trial_type":"html-button-response","trial_index":68,"time_elapsed":401473,"internal_node_id":"0.0-19.22-0.22"},{"rate":0.1930180193856943,"trial_type":"html-keyboard-response","trial_index":69,"time_elapsed":401473,"internal_node_id":"0.0-19.22-1.22"},{"rt":null,"stimulus":"<div style=\"background-color:#ff7157\"><h1 style=\"background-color:Tomato\">Bad luck! There was no prize in the box!</h1><h1 style=\"background-color:Tomato\">Remember, you need to keep going until you have 20 prizes!</h1><img id=\"box\" src=\"img/sad/blueopenboxsadthumb.png\"></img></div>","key_press":null,"trial_type":"html-keyboard-response","trial_index":69,"time_elapsed":402976,"internal_node_id":"0.0-19.22-1.22"},{"rt":2126,"stimulus":"<p>Choose a box,</p>","button_pressed":3,"trial_type":"html-button-response","trial_index":70,"time_elapsed":405103,"internal_node_id":"0.0-19.23-0.23"},{"rate":0.763145459257345,"trial_type":"html-keyboard-response","trial_index":71,"time_elapsed":405103,"internal_node_id":"0.0-19.23-1.23"},{"rt":null,"stimulus":"<div style=\"background-color:#6dce98\"><h1 style=\"background-color:MediumSeaGreen\" >You won a prize! Well done!</h1><div style=\"background-color:#6dce98\"><h1 style=\"background-color:MediumSeaGreen\" >Only 9 left to go!</h1><img id=\"box\" src=\"img/prizes/choc.png\"></img><img id=\"box\" src=\"img/empty/redopenbox.png\"></img></div>","key_press":null,"trial_type":"html-keyboard-response","trial_index":71,"time_elapsed":406613,"internal_node_id":"0.0-19.23-1.23"},{"rt":956,"stimulus":"<p>Choose a box,</p>","button_pressed":1,"trial_type":"html-button-response","trial_index":72,"time_elapsed":407570,"internal_node_id":"0.0-19.24-0.24"},{"rate":0.4523658665725032,"trial_type":"html-keyboard-response","trial_index":73,"time_elapsed":407570,"internal_node_id":"0.0-19.24-1.24"},{"rt":null,"stimulus":"<div style=\"background-color:#ff7157\"><h1 style=\"background-color:Tomato\">Bad luck! There was no prize in the box!</h1><h1 style=\"background-color:Tomato\">Remember, you need to keep going until you have 20 prizes!</h1><img id=\"box\" src=\"img/sad/greenopenboxsadthumb.png\"></img></div>","key_press":null,"trial_type":"html-keyboard-response","trial_index":73,"time_elapsed":409082,"internal_node_id":"0.0-19.24-1.24"},{"rt":447,"stimulus":"<p>Choose a box,</p>","button_pressed":3,"trial_type":"html-button-response","trial_index":74,"time_elapsed":409530,"internal_node_id":"0.0-19.25-0.25"},{"rate":0.763145459257345,"trial_type":"html-keyboard-response","trial_index":75,"time_elapsed":409530,"internal_node_id":"0.0-19.25-1.25"},{"rt":null,"stimulus":"<div style=\"background-color:#6dce98\"><h1 style=\"background-color:MediumSeaGreen\" >You won a prize! Well done!</h1><div style=\"background-color:#6dce98\"><h1 style=\"background-color:MediumSeaGreen\" >Only 8 left to go!</h1><img id=\"box\" src=\"img/prizes/lolipop.png\"></img><img id=\"box\" src=\"img/empty/redopenbox.png\"></img></div>","key_press":null,"trial_type":"html-keyboard-response","trial_index":75,"time_elapsed":411035,"internal_node_id":"0.0-19.25-1.25"},{"rt":436,"stimulus":"<p>Choose a box,</p>","button_pressed":2,"trial_type":"html-button-response","trial_index":76,"time_elapsed":411472,"internal_node_id":"0.0-19.26-0.26"},{"rate":0.5944824927784662,"trial_type":"html-keyboard-response","trial_index":77,"time_elapsed":411472,"internal_node_id":"0.0-19.26-1.26"},{"rt":null,"stimulus":"<div style=\"background-color:#6dce98\"><h1 style=\"background-color:MediumSeaGreen\" >You won a prize! Well done!</h1><div style=\"background-color:#6dce98\"><h1 style=\"background-color:MediumSeaGreen\" >Only 7 left to go!</h1><img id=\"box\" src=\"img/prizes/duck.png\"></img><img id=\"box\" src=\"img/empty/purpleopenbox.png\"></img></div>","key_press":null,"trial_type":"html-keyboard-response","trial_index":77,"time_elapsed":412977,"internal_node_id":"0.0-19.26-1.26"},{"rt":598,"stimulus":"<p>Choose a box,</p>","button_pressed":3,"trial_type":"html-button-response","trial_index":78,"time_elapsed":413576,"internal_node_id":"0.0-19.27-0.27"},{"rate":0.763145459257345,"trial_type":"html-keyboard-response","trial_index":79,"time_elapsed":413577,"internal_node_id":"0.0-19.27-1.27"},{"rt":null,"stimulus":"<div style=\"background-color:#6dce98\"><h1 style=\"background-color:MediumSeaGreen\" >You won a prize! Well done!</h1><div style=\"background-color:#6dce98\"><h1 style=\"background-color:MediumSeaGreen\" >Only 6 left to go!</h1><img id=\"box\" src=\"img/prizes/ring.png\"></img><img id=\"box\" src=\"img/empty/redopenbox.png\"></img></div>","key_press":null,"trial_type":"html-keyboard-response","trial_index":79,"time_elapsed":415093,"internal_node_id":"0.0-19.27-1.27"},{"rt":659,"stimulus":"<p>Choose a box,</p>","button_pressed":3,"trial_type":"html-button-response","trial_index":80,"time_elapsed":415752,"internal_node_id":"0.0-19.28-0.28"},{"rate":0.763145459257345,"trial_type":"html-keyboard-response","trial_index":81,"time_elapsed":415752,"internal_node_id":"0.0-19.28-1.28"},{"rt":null,"stimulus":"<div style=\"background-color:#ff7157\"><h1 style=\"background-color:Tomato\">Bad luck! There was no prize in the box!</h1><h1 style=\"background-color:Tomato\">Remember, you need to keep going until you have 20 prizes!</h1><img id=\"box\" src=\"img/sad/redopenboxsadthumb.png\"></img></div>","key_press":null,"trial_type":"html-keyboard-response","trial_index":81,"time_elapsed":417257,"internal_node_id":"0.0-19.28-1.28"},{"rt":468,"stimulus":"<p>Choose a box,</p>","button_pressed":0,"trial_type":"html-button-response","trial_index":82,"time_elapsed":417725,"internal_node_id":"0.0-19.29-0.29"},{"rate":0.1930180193856943,"trial_type":"html-keyboard-response","trial_index":83,"time_elapsed":417725,"internal_node_id":"0.0-19.29-1.29"},{"rt":null,"stimulus":"<div style=\"background-color:#6dce98\"><h1 style=\"background-color:MediumSeaGreen\" >You won a prize! Well done!</h1><div style=\"background-color:#6dce98\"><h1 style=\"background-color:MediumSeaGreen\" >Only 5 left to go!</h1><img id=\"box\" src=\"img/prizes/choc.png\"></img><img id=\"box\" src=\"img/empty/blueopenbox.png\"></img></div>","key_press":null,"trial_type":"html-keyboard-response","trial_index":83,"time_elapsed":419230,"internal_node_id":"0.0-19.29-1.29"},{"rt":1050,"stimulus":"<p>Choose a box,</p>","button_pressed":1,"trial_type":"html-button-response","trial_index":84,"time_elapsed":420280,"internal_node_id":"0.0-19.30-0.30"},{"rate":0.4523658665725032,"trial_type":"html-keyboard-response","trial_index":85,"time_elapsed":420281,"internal_node_id":"0.0-19.30-1.30"},{"rt":null,"stimulus":"<div style=\"background-color:#ff7157\"><h1 style=\"background-color:Tomato\">Bad luck! There was no prize in the box!</h1><h1 style=\"background-color:Tomato\">Remember, you need to keep going until you have 20 prizes!</h1><img id=\"box\" src=\"img/sad/greenopenboxsadthumb.png\"></img></div>","key_press":null,"trial_type":"html-keyboard-response","trial_index":85,"time_elapsed":421790,"internal_node_id":"0.0-19.30-1.30"},{"rt":312,"stimulus":"<p>Choose a box,</p>","button_pressed":3,"trial_type":"html-button-response","trial_index":86,"time_elapsed":422103,"internal_node_id":"0.0-19.31-0.31"},{"rate":0.763145459257345,"trial_type":"html-keyboard-response","trial_index":87,"time_elapsed":422103,"internal_node_id":"0.0-19.31-1.31"},{"rt":null,"stimulus":"<div style=\"background-color:#6dce98\"><h1 style=\"background-color:MediumSeaGreen\" >You won a prize! Well done!</h1><div style=\"background-color:#6dce98\"><h1 style=\"background-color:MediumSeaGreen\" >Only 4 left to go!</h1><img id=\"box\" src=\"img/prizes/duck.png\"></img><img id=\"box\" src=\"img/empty/redopenbox.png\"></img></div>","key_press":null,"trial_type":"html-keyboard-response","trial_index":87,"time_elapsed":423616,"internal_node_id":"0.0-19.31-1.31"},{"rt":1038,"stimulus":"<p>Choose a box,</p>","button_pressed":3,"trial_type":"html-button-response","trial_index":88,"time_elapsed":424653,"internal_node_id":"0.0-19.32-0.32"},{"rate":0.763145459257345,"trial_type":"html-keyboard-response","trial_index":89,"time_elapsed":424654,"internal_node_id":"0.0-19.32-1.32"},{"rt":null,"stimulus":"<div style=\"background-color:#6dce98\"><h1 style=\"background-color:MediumSeaGreen\" >You won a prize! Well done!</h1><div style=\"background-color:#6dce98\"><h1 style=\"background-color:MediumSeaGreen\" >Only 3 left to go!</h1><img id=\"box\" src=\"img/prizes/beachball.png\"></img><img id=\"box\" src=\"img/empty/redopenbox.png\"></img></div>","key_press":null,"trial_type":"html-keyboard-response","trial_index":89,"time_elapsed":426163,"internal_node_id":"0.0-19.32-1.32"},{"rt":1260,"stimulus":"<p>Choose a box,</p>","button_pressed":1,"trial_type":"html-button-response","trial_index":90,"time_elapsed":427423,"internal_node_id":"0.0-19.33-0.33"},{"rate":0.4523658665725032,"trial_type":"html-keyboard-response","trial_index":91,"time_elapsed":427423,"internal_node_id":"0.0-19.33-1.33"},{"rt":null,"stimulus":"<div style=\"background-color:#ff7157\"><h1 style=\"background-color:Tomato\">Bad luck! There was no prize in the box!</h1><h1 style=\"background-color:Tomato\">Remember, you need to keep going until you have 20 prizes!</h1><img id=\"box\" src=\"img/sad/greenopenboxsadthumb.png\"></img></div>","key_press":null,"trial_type":"html-keyboard-response","trial_index":91,"time_elapsed":428928,"internal_node_id":"0.0-19.33-1.33"},{"rt":571,"stimulus":"<p>Choose a box,</p>","button_pressed":3,"trial_type":"html-button-response","trial_index":92,"time_elapsed":429498,"internal_node_id":"0.0-19.34-0.34"},{"rate":0.763145459257345,"trial_type":"html-keyboard-response","trial_index":93,"time_elapsed":429498,"internal_node_id":"0.0-19.34-1.34"},{"rt":null,"stimulus":"<div style=\"background-color:#6dce98\"><h1 style=\"background-color:MediumSeaGreen\" >You won a prize! Well done!</h1><div style=\"background-color:#6dce98\"><h1 style=\"background-color:MediumSeaGreen\" >Only 2 left to go!</h1><img id=\"box\" src=\"img/prizes/lolipop.png\"></img><img id=\"box\" src=\"img/empty/redopenbox.png\"></img></div>","key_press":null,"trial_type":"html-keyboard-response","trial_index":93,"time_elapsed":431004,"internal_node_id":"0.0-19.34-1.34"},{"rt":405,"stimulus":"<p>Choose a box,</p>","button_pressed":2,"trial_type":"html-button-response","trial_index":94,"time_elapsed":431409,"internal_node_id":"0.0-19.35-0.35"},{"rate":0.5944824927784662,"trial_type":"html-keyboard-response","trial_index":95,"time_elapsed":431409,"internal_node_id":"0.0-19.35-1.35"},{"rt":null,"stimulus":"<div style=\"background-color:#6dce98\"><h1 style=\"background-color:MediumSeaGreen\" >You won a prize! Well done!</h1><div style=\"background-color:#6dce98\"><h1 style=\"background-color:MediumSeaGreen\" >Only 1 left to go!</h1><img id=\"box\" src=\"img/prizes/flowers.png\"></img><img id=\"box\" src=\"img/empty/purpleopenbox.png\"></img></div>","key_press":null,"trial_type":"html-keyboard-response","trial_index":95,"time_elapsed":432910,"internal_node_id":"0.0-19.35-1.35"},{"rt":391,"stimulus":"<p>Choose a box,</p>","button_pressed":3,"trial_type":"html-button-response","trial_index":96,"time_elapsed":433303,"internal_node_id":"0.0-19.36-0.36"},{"rate":0.763145459257345,"trial_type":"html-keyboard-response","trial_index":97,"time_elapsed":433303,"internal_node_id":"0.0-19.36-1.36"},{"rt":null,"stimulus":"<div style=\"background-color:#6dce98\"><h1 style=\"background-color:MediumSeaGreen\" >You won a prize! Well done!</h1><div style=\"background-color:#6dce98\"><h1 style=\"background-color:MediumSeaGreen\" >Only 0 left to go!</h1><img id=\"box\" src=\"img/prizes/coins.png\"></img><img id=\"box\" src=\"img/empty/redopenbox.png\"></img></div>","key_press":null,"trial_type":"html-keyboard-response","trial_index":97,"time_elapsed":434814,"internal_node_id":"0.0-19.36-1.36"},{"rt":145754,"responses":"{\"Q0\":\"I was puzzled how could this information of how I picked boxes useful to You.\",\"Q1\":\"I really liked the red one, however i wouldn't pick the same one more than 2 times in a row\"}","trial_type":"survey-text","trial_index":98,"time_elapsed":580590,"internal_node_id":"0.0-20.0"}]