[{"view_history":"[{\"page_index\":0,\"viewing_time\":34552.04000000231},{\"page_index\":1,\"viewing_time\":19134.829999999056},{\"page_index\":2,\"viewing_time\":27774.994999999763},{\"page_index\":3,\"viewing_time\":18927.090000001044},{\"page_index\":4,\"viewing_time\":4522.075000000768},{\"page_index\":5,\"viewing_time\":12503.199999999197}]","rt":117414.7750000011,"trial_type":"instructions","trial_index":0,"time_elapsed":117415,"internal_node_id":"0.0-0.0"},{"rt":21885.17000000138,"responses":"{\"Q0\":\"Yes\",\"Q1\":\"Yes\",\"Q2\":\"Yes\"}","question_order":"[0,1,2]","trial_type":"survey-multi-choice","trial_index":1,"time_elapsed":139302,"internal_node_id":"0.0-1.0-0.0"},{"rt":14066.914999999426,"responses":"{\"Q0\":\"Yes\",\"Q1\":\"Yes\",\"Q2\":\"Yes\"}","question_order":"[0,1,2]","trial_type":"survey-multi-choice","trial_index":2,"time_elapsed":153370,"internal_node_id":"0.0-2.0-0.0"},{"rt":7594.105000000127,"responses":"{\"Q0\":\"5f3e48bfc67afe0164d3a01c\"}","trial_type":"survey-text","trial_index":3,"time_elapsed":160966,"internal_node_id":"0.0-3.0"},{"rt":6107.169999999314,"responses":"{\"Q0\":\"Male\",\"Q1\":\"18-25\"}","question_order":"[0,1]","trial_type":"survey-multi-choice","trial_index":4,"time_elapsed":167074,"internal_node_id":"0.0-4.0"},{"rt":3947.940000001836,"responses":"{\"Q0\":\"\"}","trial_type":"survey-text","trial_index":5,"time_elapsed":171023,"internal_node_id":"0.0-5.0"},{"view_history":"[{\"page_index\":0,\"viewing_time\":4165.520000002289}]","rt":4165.7000000013795,"trial_type":"instructions","trial_index":6,"time_elapsed":175189,"internal_node_id":"0.0-6.0"},{"rt":29489.079999999376,"responses":"{\"Interested\":2,\"Distressed\":3,\"Excited\":3,\"Upset\":3}","question_order":"[0,1,2,3]","trial_type":"survey-likert","trial_index":7,"time_elapsed":204679,"internal_node_id":"0.0-7.0"},{"rt":34774.98999999807,"responses":"{\"Strong\":1,\"Guilty\":4,\"Scared\":4,\"Hostile\":3}","question_order":"[0,1,2,3]","trial_type":"survey-likert","trial_index":8,"time_elapsed":239456,"internal_node_id":"0.0-8.0"},{"rt":12054.039999999077,"responses":"{\"Enthusiastic\":2,\"Proud\":0,\"Irritable\":4,\"Alert\":3}","question_order":"[0,1,2,3]","trial_type":"survey-likert","trial_index":9,"time_elapsed":251511,"internal_node_id":"0.0-9.0"},{"rt":11031.50999999707,"responses":"{\"Ashamed\":3,\"Inspired\":2,\"Nervous\":4,\"Determined\":1}","question_order":"[0,1,2,3]","trial_type":"survey-likert","trial_index":10,"time_elapsed":262543,"internal_node_id":"0.0-10.0"},{"rt":27276.254999997036,"responses":"{\"Attentive\":0,\"Jittery\":1,\"Active\":1,\"Afraid\":3}","question_order":"[0,1,2,3]","trial_type":"survey-likert","trial_index":11,"time_elapsed":289821,"internal_node_id":"0.0-11.0"},{"rt":20168.57000000158,"responses":"{\"Q0\":3,\"Q1\":2,\"Q2\":2,\"Q3\":3}","question_order":"[0,1,2,3]","trial_type":"survey-likert","trial_index":12,"time_elapsed":309990,"internal_node_id":"0.0-12.0"},{"rt":30193.869999999122,"responses":"{\"Q0\":2,\"Q1\":3,\"Q2\":2,\"Q3\":0}","question_order":"[0,1,2,3]","trial_type":"survey-likert","trial_index":13,"time_elapsed":340185,"internal_node_id":"0.0-13.0"},{"rt":15690.90000000142,"responses":"{\"Q0\":1,\"Q1\":3,\"Q2\":3,\"Q3\":1}","question_order":"[0,1,2,3]","trial_type":"survey-likert","trial_index":14,"time_elapsed":355877,"internal_node_id":"0.0-14.0"},{"rt":13192.644999999204,"responses":"{\"Q0\":1,\"Q1\":3,\"Q2\":3}","question_order":"[0,1,2]","trial_type":"survey-likert","trial_index":15,"time_elapsed":369071,"internal_node_id":"0.0-15.0"},{"view_history":"[{\"page_index\":0,\"viewing_time\":3421.7250000001513},{\"page_index\":1,\"viewing_time\":9252.035000001371},{\"page_index\":2,\"viewing_time\":5644.970000001136}]","rt":18319.22499999928,"trial_type":"instructions","trial_index":16,"time_elapsed":387392,"internal_node_id":"0.0-16.0"},{"rt":1571.5549999986542,"stimulus":"<p>Choose a box,</p>","button_pressed":1,"trial_type":"html-button-response","trial_index":17,"time_elapsed":388965,"internal_node_id":"0.0-17.0-0.0"},{"rate":0.39478154427000967,"trial_type":"html-keyboard-response","trial_index":18,"time_elapsed":388965,"internal_node_id":"0.0-17.0-1.0"},{"rt":null,"stimulus":"<div style=\"background-color:#6dce98\"><h1 style=\"background-color:MediumSeaGreen\" >You won a prize! Well done!</h1><div style=\"background-color:#6dce98\"><h1 style=\"background-color:MediumSeaGreen\" >Only 19 left to go!</h1><img id=\"box\" src=\"img/prizes/yoyo.png\"></img><img id=\"box\" src=\"img/empty/greenopenbox.png\"></img></div>","key_press":null,"trial_type":"html-keyboard-response","trial_index":18,"time_elapsed":390467,"internal_node_id":"0.0-17.0-1.0"},{"rt":2385.7800000004936,"stimulus":"<p>Choose a box,</p>","button_pressed":2,"trial_type":"html-button-response","trial_index":19,"time_elapsed":392854,"internal_node_id":"0.0-17.0-0.1"},{"rate":0.6788902825808998,"trial_type":"html-keyboard-response","trial_index":20,"time_elapsed":392854,"internal_node_id":"0.0-17.0-1.1"},{"rt":null,"stimulus":"<div style=\"background-color:#ff7157\"><h1 style=\"background-color:Tomato\">Bad luck! There was no prize in the box!</h1><h1 style=\"background-color:Tomato\">Remember, you need to keep going until you have 20 prizes!</h1><img id=\"box\" src=\"img/sad/purpleopenboxsadthumb.png\"></img></div>","key_press":null,"trial_type":"html-keyboard-response","trial_index":20,"time_elapsed":394356,"internal_node_id":"0.0-17.0-1.1"},{"rt":1531.605000000156,"stimulus":"<p>Choose a box,</p>","button_pressed":0,"trial_type":"html-button-response","trial_index":21,"time_elapsed":395890,"internal_node_id":"0.0-17.0-0.2"},{"rate":0.21964747662042575,"trial_type":"html-keyboard-response","trial_index":22,"time_elapsed":395890,"internal_node_id":"0.0-17.0-1.2"},{"rt":null,"stimulus":"<div style=\"background-color:#6dce98\"><h1 style=\"background-color:MediumSeaGreen\" >You won a prize! Well done!</h1><div style=\"background-color:#6dce98\"><h1 style=\"background-color:MediumSeaGreen\" >Only 18 left to go!</h1><img id=\"box\" src=\"img/prizes/bear.png\"></img><img id=\"box\" src=\"img/empty/blueopenbox.png\"></img></div>","key_press":null,"trial_type":"html-keyboard-response","trial_index":22,"time_elapsed":397392,"internal_node_id":"0.0-17.0-1.2"},{"view_history":"[{\"page_index\":0,\"viewing_time\":8476.429999998829}]","rt":8476.58500000037,"trial_type":"instructions","trial_index":23,"time_elapsed":405873,"internal_node_id":"0.0-18.0"},{"rt":659.2149999997346,"stimulus":"<p>Choose a box,</p>","button_pressed":1,"trial_type":"html-button-response","trial_index":24,"time_elapsed":406533,"internal_node_id":"0.0-19.0-0.0"},{"rate":0.030344332832053265,"trial_type":"html-keyboard-response","trial_index":25,"time_elapsed":406533,"internal_node_id":"0.0-19.0-1.0"},{"rt":null,"stimulus":"<div style=\"background-color:#ff7157\"><h1 style=\"background-color:Tomato\">Bad luck! There was no prize in the box!</h1><h1 style=\"background-color:Tomato\">Remember, you need to keep going until you have 20 prizes!</h1><img id=\"box\" src=\"img/sad/greenopenboxsadthumb.png\"></img></div>","key_press":null,"trial_type":"html-keyboard-response","trial_index":25,"time_elapsed":408046,"internal_node_id":"0.0-19.0-1.0"},{"rt":1130.4349999991246,"stimulus":"<p>Choose a box,</p>","button_pressed":1,"trial_type":"html-button-response","trial_index":26,"time_elapsed":409178,"internal_node_id":"0.0-19.1-0.1"},{"rate":0.030344332832053265,"trial_type":"html-keyboard-response","trial_index":27,"time_elapsed":409178,"internal_node_id":"0.0-19.1-1.1"},{"rt":null,"stimulus":"<div style=\"background-color:#ff7157\"><h1 style=\"background-color:Tomato\">Bad luck! There was no prize in the box!</h1><h1 style=\"background-color:Tomato\">Remember, you need to keep going until you have 20 prizes!</h1><img id=\"box\" src=\"img/sad/greenopenboxsadthumb.png\"></img></div>","key_press":null,"trial_type":"html-keyboard-response","trial_index":27,"time_elapsed":410680,"internal_node_id":"0.0-19.1-1.1"},{"rt":1630.1199999980163,"stimulus":"<p>Choose a box,</p>","button_pressed":0,"trial_type":"html-button-response","trial_index":28,"time_elapsed":412313,"internal_node_id":"0.0-19.2-0.2"},{"rate":0.8451127929852871,"trial_type":"html-keyboard-response","trial_index":29,"time_elapsed":412313,"internal_node_id":"0.0-19.2-1.2"},{"rt":null,"stimulus":"<div style=\"background-color:#6dce98\"><h1 style=\"background-color:MediumSeaGreen\" >You won a prize! Well done!</h1><div style=\"background-color:#6dce98\"><h1 style=\"background-color:MediumSeaGreen\" >Only 19 left to go!</h1><img id=\"box\" src=\"img/prizes/bear.png\"></img><img id=\"box\" src=\"img/empty/blueopenbox.png\"></img></div>","key_press":null,"trial_type":"html-keyboard-response","trial_index":29,"time_elapsed":413814,"internal_node_id":"0.0-19.2-1.2"},{"rt":1431.125000002794,"stimulus":"<p>Choose a box,</p>","button_pressed":2,"trial_type":"html-button-response","trial_index":30,"time_elapsed":415246,"internal_node_id":"0.0-19.3-0.3"},{"rate":0.6963016943894672,"trial_type":"html-keyboard-response","trial_index":31,"time_elapsed":415246,"internal_node_id":"0.0-19.3-1.3"},{"rt":null,"stimulus":"<div style=\"background-color:#6dce98\"><h1 style=\"background-color:MediumSeaGreen\" >You won a prize! Well done!</h1><div style=\"background-color:#6dce98\"><h1 style=\"background-color:MediumSeaGreen\" >Only 18 left to go!</h1><img id=\"box\" src=\"img/prizes/coins.png\"></img><img id=\"box\" src=\"img/empty/purpleopenbox.png\"></img></div>","key_press":null,"trial_type":"html-keyboard-response","trial_index":31,"time_elapsed":416757,"internal_node_id":"0.0-19.3-1.3"},{"rt":855.984999998298,"stimulus":"<p>Choose a box,</p>","button_pressed":2,"trial_type":"html-button-response","trial_index":32,"time_elapsed":417614,"internal_node_id":"0.0-19.4-0.4"},{"rate":0.6963016943894672,"trial_type":"html-keyboard-response","trial_index":33,"time_elapsed":417614,"internal_node_id":"0.0-19.4-1.4"},{"rt":null,"stimulus":"<div style=\"background-color:#6dce98\"><h1 style=\"background-color:MediumSeaGreen\" >You won a prize! Well done!</h1><div style=\"background-color:#6dce98\"><h1 style=\"background-color:MediumSeaGreen\" >Only 17 left to go!</h1><img id=\"box\" src=\"img/prizes/beachball.png\"></img><img id=\"box\" src=\"img/empty/purpleopenbox.png\"></img></div>","key_press":null,"trial_type":"html-keyboard-response","trial_index":33,"time_elapsed":419115,"internal_node_id":"0.0-19.4-1.4"},{"rt":921.0249999996158,"stimulus":"<p>Choose a box,</p>","button_pressed":0,"trial_type":"html-button-response","trial_index":34,"time_elapsed":420037,"internal_node_id":"0.0-19.5-0.5"},{"rate":0.8451127929852871,"trial_type":"html-keyboard-response","trial_index":35,"time_elapsed":420037,"internal_node_id":"0.0-19.5-1.5"},{"rt":null,"stimulus":"<div style=\"background-color:#6dce98\"><h1 style=\"background-color:MediumSeaGreen\" >You won a prize! Well done!</h1><div style=\"background-color:#6dce98\"><h1 style=\"background-color:MediumSeaGreen\" >Only 16 left to go!</h1><img id=\"box\" src=\"img/prizes/yoyo.png\"></img><img id=\"box\" src=\"img/empty/blueopenbox.png\"></img></div>","key_press":null,"trial_type":"html-keyboard-response","trial_index":35,"time_elapsed":421538,"internal_node_id":"0.0-19.5-1.5"},{"rt":796.2399999996414,"stimulus":"<p>Choose a box,</p>","button_pressed":3,"trial_type":"html-button-response","trial_index":36,"time_elapsed":422337,"internal_node_id":"0.0-19.6-0.6"},{"rate":0.17682408534369784,"trial_type":"html-keyboard-response","trial_index":37,"time_elapsed":422337,"internal_node_id":"0.0-19.6-1.6"},{"rt":null,"stimulus":"<div style=\"background-color:#ff7157\"><h1 style=\"background-color:Tomato\">Bad luck! There was no prize in the box!</h1><h1 style=\"background-color:Tomato\">Remember, you need to keep going until you have 20 prizes!</h1><img id=\"box\" src=\"img/sad/redopenboxsadthumb.png\"></img></div>","key_press":null,"trial_type":"html-keyboard-response","trial_index":37,"time_elapsed":423838,"internal_node_id":"0.0-19.6-1.6"},{"rt":502.71000000066124,"stimulus":"<p>Choose a box,</p>","button_pressed":1,"trial_type":"html-button-response","trial_index":38,"time_elapsed":424341,"internal_node_id":"0.0-19.7-0.7"},{"rate":0.030344332832053265,"trial_type":"html-keyboard-response","trial_index":39,"time_elapsed":424342,"internal_node_id":"0.0-19.7-1.7"},{"rt":null,"stimulus":"<div style=\"background-color:#ff7157\"><h1 style=\"background-color:Tomato\">Bad luck! There was no prize in the box!</h1><h1 style=\"background-color:Tomato\">Remember, you need to keep going until you have 20 prizes!</h1><img id=\"box\" src=\"img/sad/greenopenboxsadthumb.png\"></img></div>","key_press":null,"trial_type":"html-keyboard-response","trial_index":39,"time_elapsed":425843,"internal_node_id":"0.0-19.7-1.7"},{"rt":538.110000001383,"stimulus":"<p>Choose a box,</p>","button_pressed":2,"trial_type":"html-button-response","trial_index":40,"time_elapsed":426382,"internal_node_id":"0.0-19.8-0.8"},{"rate":0.6963016943894672,"trial_type":"html-keyboard-response","trial_index":41,"time_elapsed":426382,"internal_node_id":"0.0-19.8-1.8"},{"rt":null,"stimulus":"<div style=\"background-color:#ff7157\"><h1 style=\"background-color:Tomato\">Bad luck! There was no prize in the box!</h1><h1 style=\"background-color:Tomato\">Remember, you need to keep going until you have 20 prizes!</h1><img id=\"box\" src=\"img/sad/purpleopenboxsadthumb.png\"></img></div>","key_press":null,"trial_type":"html-keyboard-response","trial_index":41,"time_elapsed":427896,"internal_node_id":"0.0-19.8-1.8"},{"rt":532.6549999990384,"stimulus":"<p>Choose a box,</p>","button_pressed":0,"trial_type":"html-button-response","trial_index":42,"time_elapsed":428430,"internal_node_id":"0.0-19.9-0.9"},{"rate":0.8451127929852871,"trial_type":"html-keyboard-response","trial_index":43,"time_elapsed":428430,"internal_node_id":"0.0-19.9-1.9"},{"rt":null,"stimulus":"<div style=\"background-color:#6dce98\"><h1 style=\"background-color:MediumSeaGreen\" >You won a prize! Well done!</h1><div style=\"background-color:#6dce98\"><h1 style=\"background-color:MediumSeaGreen\" >Only 15 left to go!</h1><img id=\"box\" src=\"img/prizes/yoyo.png\"></img><img id=\"box\" src=\"img/empty/blueopenbox.png\"></img></div>","key_press":null,"trial_type":"html-keyboard-response","trial_index":43,"time_elapsed":429932,"internal_node_id":"0.0-19.9-1.9"},{"rt":1151.7100000019418,"stimulus":"<p>Choose a box,</p>","button_pressed":0,"trial_type":"html-button-response","trial_index":44,"time_elapsed":431086,"internal_node_id":"0.0-19.10-0.10"},{"rate":0.8451127929852871,"trial_type":"html-keyboard-response","trial_index":45,"time_elapsed":431086,"internal_node_id":"0.0-19.10-1.10"},{"rt":null,"stimulus":"<div style=\"background-color:#6dce98\"><h1 style=\"background-color:MediumSeaGreen\" >You won a prize! Well done!</h1><div style=\"background-color:#6dce98\"><h1 style=\"background-color:MediumSeaGreen\" >Only 14 left to go!</h1><img id=\"box\" src=\"img/prizes/lolipop.png\"></img><img id=\"box\" src=\"img/empty/blueopenbox.png\"></img></div>","key_press":null,"trial_type":"html-keyboard-response","trial_index":45,"time_elapsed":432602,"internal_node_id":"0.0-19.10-1.10"},{"rt":380.56000000145286,"stimulus":"<p>Choose a box,</p>","button_pressed":0,"trial_type":"html-button-response","trial_index":46,"time_elapsed":432985,"internal_node_id":"0.0-19.11-0.11"},{"rate":0.8451127929852871,"trial_type":"html-keyboard-response","trial_index":47,"time_elapsed":432985,"internal_node_id":"0.0-19.11-1.11"},{"rt":null,"stimulus":"<div style=\"background-color:#6dce98\"><h1 style=\"background-color:MediumSeaGreen\" >You won a prize! Well done!</h1><div style=\"background-color:#6dce98\"><h1 style=\"background-color:MediumSeaGreen\" >Only 13 left to go!</h1><img id=\"box\" src=\"img/prizes/choc.png\"></img><img id=\"box\" src=\"img/empty/blueopenbox.png\"></img></div>","key_press":null,"trial_type":"html-keyboard-response","trial_index":47,"time_elapsed":434487,"internal_node_id":"0.0-19.11-1.11"},{"rt":608.5399999974179,"stimulus":"<p>Choose a box,</p>","button_pressed":0,"trial_type":"html-button-response","trial_index":48,"time_elapsed":435098,"internal_node_id":"0.0-19.12-0.12"},{"rate":0.8451127929852871,"trial_type":"html-keyboard-response","trial_index":49,"time_elapsed":435098,"internal_node_id":"0.0-19.12-1.12"},{"rt":null,"stimulus":"<div style=\"background-color:#6dce98\"><h1 style=\"background-color:MediumSeaGreen\" >You won a prize! Well done!</h1><div style=\"background-color:#6dce98\"><h1 style=\"background-color:MediumSeaGreen\" >Only 12 left to go!</h1><img id=\"box\" src=\"img/prizes/yoyo.png\"></img><img id=\"box\" src=\"img/empty/blueopenbox.png\"></img></div>","key_press":null,"trial_type":"html-keyboard-response","trial_index":49,"time_elapsed":436608,"internal_node_id":"0.0-19.12-1.12"},{"rt":732.6500000017113,"stimulus":"<p>Choose a box,</p>","button_pressed":2,"trial_type":"html-button-response","trial_index":50,"time_elapsed":437342,"internal_node_id":"0.0-19.13-0.13"},{"rate":0.6963016943894672,"trial_type":"html-keyboard-response","trial_index":51,"time_elapsed":437342,"internal_node_id":"0.0-19.13-1.13"},{"rt":null,"stimulus":"<div style=\"background-color:#6dce98\"><h1 style=\"background-color:MediumSeaGreen\" >You won a prize! Well done!</h1><div style=\"background-color:#6dce98\"><h1 style=\"background-color:MediumSeaGreen\" >Only 11 left to go!</h1><img id=\"box\" src=\"img/prizes/coins.png\"></img><img id=\"box\" src=\"img/empty/purpleopenbox.png\"></img></div>","key_press":null,"trial_type":"html-keyboard-response","trial_index":51,"time_elapsed":438843,"internal_node_id":"0.0-19.13-1.13"},{"rt":515.7800000015413,"stimulus":"<p>Choose a box,</p>","button_pressed":2,"trial_type":"html-button-response","trial_index":52,"time_elapsed":439359,"internal_node_id":"0.0-19.14-0.14"},{"rate":0.6963016943894672,"trial_type":"html-keyboard-response","trial_index":53,"time_elapsed":439360,"internal_node_id":"0.0-19.14-1.14"},{"rt":null,"stimulus":"<div style=\"background-color:#6dce98\"><h1 style=\"background-color:MediumSeaGreen\" >You won a prize! Well done!</h1><div style=\"background-color:#6dce98\"><h1 style=\"background-color:MediumSeaGreen\" >Only 10 left to go!</h1><img id=\"box\" src=\"img/prizes/choc.png\"></img><img id=\"box\" src=\"img/empty/purpleopenbox.png\"></img></div>","key_press":null,"trial_type":"html-keyboard-response","trial_index":53,"time_elapsed":440870,"internal_node_id":"0.0-19.14-1.14"},{"rt":479.6550000028219,"stimulus":"<p>Choose a box,</p>","button_pressed":0,"trial_type":"html-button-response","trial_index":54,"time_elapsed":441351,"internal_node_id":"0.0-19.15-0.15"},{"rate":0.8451127929852871,"trial_type":"html-keyboard-response","trial_index":55,"time_elapsed":441351,"internal_node_id":"0.0-19.15-1.15"},{"rt":null,"stimulus":"<div style=\"background-color:#6dce98\"><h1 style=\"background-color:MediumSeaGreen\" >You won a prize! Well done!</h1><div style=\"background-color:#6dce98\"><h1 style=\"background-color:MediumSeaGreen\" >Only 9 left to go!</h1><img id=\"box\" src=\"img/prizes/coins.png\"></img><img id=\"box\" src=\"img/empty/blueopenbox.png\"></img></div>","key_press":null,"trial_type":"html-keyboard-response","trial_index":55,"time_elapsed":442853,"internal_node_id":"0.0-19.15-1.15"},{"rt":450.1700000001001,"stimulus":"<p>Choose a box,</p>","button_pressed":2,"trial_type":"html-button-response","trial_index":56,"time_elapsed":443304,"internal_node_id":"0.0-19.16-0.16"},{"rate":0.6963016943894672,"trial_type":"html-keyboard-response","trial_index":57,"time_elapsed":443304,"internal_node_id":"0.0-19.16-1.16"},{"rt":null,"stimulus":"<div style=\"background-color:#6dce98\"><h1 style=\"background-color:MediumSeaGreen\" >You won a prize! Well done!</h1><div style=\"background-color:#6dce98\"><h1 style=\"background-color:MediumSeaGreen\" >Only 8 left to go!</h1><img id=\"box\" src=\"img/prizes/yoyo.png\"></img><img id=\"box\" src=\"img/empty/purpleopenbox.png\"></img></div>","key_press":null,"trial_type":"html-keyboard-response","trial_index":57,"time_elapsed":444806,"internal_node_id":"0.0-19.16-1.16"},{"rt":338.9100000022445,"stimulus":"<p>Choose a box,</p>","button_pressed":1,"trial_type":"html-button-response","trial_index":58,"time_elapsed":445146,"internal_node_id":"0.0-19.17-0.17"},{"rate":0.030344332832053265,"trial_type":"html-keyboard-response","trial_index":59,"time_elapsed":445146,"internal_node_id":"0.0-19.17-1.17"},{"rt":null,"stimulus":"<div style=\"background-color:#ff7157\"><h1 style=\"background-color:Tomato\">Bad luck! There was no prize in the box!</h1><h1 style=\"background-color:Tomato\">Remember, you need to keep going until you have 20 prizes!</h1><img id=\"box\" src=\"img/sad/greenopenboxsadthumb.png\"></img></div>","key_press":null,"trial_type":"html-keyboard-response","trial_index":59,"time_elapsed":446646,"internal_node_id":"0.0-19.17-1.17"},{"rt":440.68500000133645,"stimulus":"<p>Choose a box,</p>","button_pressed":3,"trial_type":"html-button-response","trial_index":60,"time_elapsed":447088,"internal_node_id":"0.0-19.18-0.18"},{"rate":0.17682408534369784,"trial_type":"html-keyboard-response","trial_index":61,"time_elapsed":447088,"internal_node_id":"0.0-19.18-1.18"},{"rt":null,"stimulus":"<div style=\"background-color:#ff7157\"><h1 style=\"background-color:Tomato\">Bad luck! There was no prize in the box!</h1><h1 style=\"background-color:Tomato\">Remember, you need to keep going until you have 20 prizes!</h1><img id=\"box\" src=\"img/sad/redopenboxsadthumb.png\"></img></div>","key_press":null,"trial_type":"html-keyboard-response","trial_index":61,"time_elapsed":448602,"internal_node_id":"0.0-19.18-1.18"},{"rt":394.3099999996484,"stimulus":"<p>Choose a box,</p>","button_pressed":2,"trial_type":"html-button-response","trial_index":62,"time_elapsed":448997,"internal_node_id":"0.0-19.19-0.19"},{"rate":0.6963016943894672,"trial_type":"html-keyboard-response","trial_index":63,"time_elapsed":448997,"internal_node_id":"0.0-19.19-1.19"},{"rt":null,"stimulus":"<div style=\"background-color:#ff7157\"><h1 style=\"background-color:Tomato\">Bad luck! There was no prize in the box!</h1><h1 style=\"background-color:Tomato\">Remember, you need to keep going until you have 20 prizes!</h1><img id=\"box\" src=\"img/sad/purpleopenboxsadthumb.png\"></img></div>","key_press":null,"trial_type":"html-keyboard-response","trial_index":63,"time_elapsed":450498,"internal_node_id":"0.0-19.19-1.19"},{"rt":396.05999999912456,"stimulus":"<p>Choose a box,</p>","button_pressed":1,"trial_type":"html-button-response","trial_index":64,"time_elapsed":450895,"internal_node_id":"0.0-19.20-0.20"},{"rate":0.030344332832053265,"trial_type":"html-keyboard-response","trial_index":65,"time_elapsed":450895,"internal_node_id":"0.0-19.20-1.20"},{"rt":null,"stimulus":"<div style=\"background-color:#ff7157\"><h1 style=\"background-color:Tomato\">Bad luck! There was no prize in the box!</h1><h1 style=\"background-color:Tomato\">Remember, you need to keep going until you have 20 prizes!</h1><img id=\"box\" src=\"img/sad/greenopenboxsadthumb.png\"></img></div>","key_press":null,"trial_type":"html-keyboard-response","trial_index":65,"time_elapsed":452396,"internal_node_id":"0.0-19.20-1.20"},{"rt":409.5850000012433,"stimulus":"<p>Choose a box,</p>","button_pressed":0,"trial_type":"html-button-response","trial_index":66,"time_elapsed":452806,"internal_node_id":"0.0-19.21-0.21"},{"rate":0.8451127929852871,"trial_type":"html-keyboard-response","trial_index":67,"time_elapsed":452806,"internal_node_id":"0.0-19.21-1.21"},{"rt":null,"stimulus":"<div style=\"background-color:#6dce98\"><h1 style=\"background-color:MediumSeaGreen\" >You won a prize! Well done!</h1><div style=\"background-color:#6dce98\"><h1 style=\"background-color:MediumSeaGreen\" >Only 7 left to go!</h1><img id=\"box\" src=\"img/prizes/beachball.png\"></img><img id=\"box\" src=\"img/empty/blueopenbox.png\"></img></div>","key_press":null,"trial_type":"html-keyboard-response","trial_index":67,"time_elapsed":454307,"internal_node_id":"0.0-19.21-1.21"},{"rt":477.92999999725726,"stimulus":"<p>Choose a box,</p>","button_pressed":0,"trial_type":"html-button-response","trial_index":68,"time_elapsed":454786,"internal_node_id":"0.0-19.22-0.22"},{"rate":0.8451127929852871,"trial_type":"html-keyboard-response","trial_index":69,"time_elapsed":454786,"internal_node_id":"0.0-19.22-1.22"},{"rt":null,"stimulus":"<div style=\"background-color:#6dce98\"><h1 style=\"background-color:MediumSeaGreen\" >You won a prize! Well done!</h1><div style=\"background-color:#6dce98\"><h1 style=\"background-color:MediumSeaGreen\" >Only 6 left to go!</h1><img id=\"box\" src=\"img/prizes/choc.png\"></img><img id=\"box\" src=\"img/empty/blueopenbox.png\"></img></div>","key_press":null,"trial_type":"html-keyboard-response","trial_index":69,"time_elapsed":456288,"internal_node_id":"0.0-19.22-1.22"},{"rt":1077.0199999969918,"stimulus":"<p>Choose a box,</p>","button_pressed":3,"trial_type":"html-button-response","trial_index":70,"time_elapsed":457368,"internal_node_id":"0.0-19.23-0.23"},{"rate":0.17682408534369784,"trial_type":"html-keyboard-response","trial_index":71,"time_elapsed":457368,"internal_node_id":"0.0-19.23-1.23"},{"rt":null,"stimulus":"<div style=\"background-color:#ff7157\"><h1 style=\"background-color:Tomato\">Bad luck! There was no prize in the box!</h1><h1 style=\"background-color:Tomato\">Remember, you need to keep going until you have 20 prizes!</h1><img id=\"box\" src=\"img/sad/redopenboxsadthumb.png\"></img></div>","key_press":null,"trial_type":"html-keyboard-response","trial_index":71,"time_elapsed":458868,"internal_node_id":"0.0-19.23-1.23"},{"rt":371.49499999941327,"stimulus":"<p>Choose a box,</p>","button_pressed":2,"trial_type":"html-button-response","trial_index":72,"time_elapsed":459241,"internal_node_id":"0.0-19.24-0.24"},{"rate":0.6963016943894672,"trial_type":"html-keyboard-response","trial_index":73,"time_elapsed":459241,"internal_node_id":"0.0-19.24-1.24"},{"rt":null,"stimulus":"<div style=\"background-color:#6dce98\"><h1 style=\"background-color:MediumSeaGreen\" >You won a prize! Well done!</h1><div style=\"background-color:#6dce98\"><h1 style=\"background-color:MediumSeaGreen\" >Only 5 left to go!</h1><img id=\"box\" src=\"img/prizes/ring.png\"></img><img id=\"box\" src=\"img/empty/purpleopenbox.png\"></img></div>","key_press":null,"trial_type":"html-keyboard-response","trial_index":73,"time_elapsed":460742,"internal_node_id":"0.0-19.24-1.24"},{"rt":398.44499999890104,"stimulus":"<p>Choose a box,</p>","button_pressed":1,"trial_type":"html-button-response","trial_index":74,"time_elapsed":461141,"internal_node_id":"0.0-19.25-0.25"},{"rate":0.030344332832053265,"trial_type":"html-keyboard-response","trial_index":75,"time_elapsed":461141,"internal_node_id":"0.0-19.25-1.25"},{"rt":null,"stimulus":"<div style=\"background-color:#ff7157\"><h1 style=\"background-color:Tomato\">Bad luck! There was no prize in the box!</h1><h1 style=\"background-color:Tomato\">Remember, you need to keep going until you have 20 prizes!</h1><img id=\"box\" src=\"img/sad/greenopenboxsadthumb.png\"></img></div>","key_press":null,"trial_type":"html-keyboard-response","trial_index":75,"time_elapsed":462642,"internal_node_id":"0.0-19.25-1.25"},{"rt":333.81500000174856,"stimulus":"<p>Choose a box,</p>","button_pressed":2,"trial_type":"html-button-response","trial_index":76,"time_elapsed":462977,"internal_node_id":"0.0-19.26-0.26"},{"rate":0.6963016943894672,"trial_type":"html-keyboard-response","trial_index":77,"time_elapsed":462977,"internal_node_id":"0.0-19.26-1.26"},{"rt":null,"stimulus":"<div style=\"background-color:#6dce98\"><h1 style=\"background-color:MediumSeaGreen\" >You won a prize! Well done!</h1><div style=\"background-color:#6dce98\"><h1 style=\"background-color:MediumSeaGreen\" >Only 4 left to go!</h1><img id=\"box\" src=\"img/prizes/duck.png\"></img><img id=\"box\" src=\"img/empty/purpleopenbox.png\"></img></div>","key_press":null,"trial_type":"html-keyboard-response","trial_index":77,"time_elapsed":464479,"internal_node_id":"0.0-19.26-1.26"},{"rt":325.3549999972456,"stimulus":"<p>Choose a box,</p>","button_pressed":0,"trial_type":"html-button-response","trial_index":78,"time_elapsed":464805,"internal_node_id":"0.0-19.27-0.27"},{"rate":0.8451127929852871,"trial_type":"html-keyboard-response","trial_index":79,"time_elapsed":464805,"internal_node_id":"0.0-19.27-1.27"},{"rt":null,"stimulus":"<div style=\"background-color:#6dce98\"><h1 style=\"background-color:MediumSeaGreen\" >You won a prize! Well done!</h1><div style=\"background-color:#6dce98\"><h1 style=\"background-color:MediumSeaGreen\" >Only 3 left to go!</h1><img id=\"box\" src=\"img/prizes/flowers.png\"></img><img id=\"box\" src=\"img/empty/blueopenbox.png\"></img></div>","key_press":null,"trial_type":"html-keyboard-response","trial_index":79,"time_elapsed":466307,"internal_node_id":"0.0-19.27-1.27"},{"rt":336.90500000008615,"stimulus":"<p>Choose a box,</p>","button_pressed":1,"trial_type":"html-button-response","trial_index":80,"time_elapsed":466645,"internal_node_id":"0.0-19.28-0.28"},{"rate":0.030344332832053265,"trial_type":"html-keyboard-response","trial_index":81,"time_elapsed":466645,"internal_node_id":"0.0-19.28-1.28"},{"rt":null,"stimulus":"<div style=\"background-color:#ff7157\"><h1 style=\"background-color:Tomato\">Bad luck! There was no prize in the box!</h1><h1 style=\"background-color:Tomato\">Remember, you need to keep going until you have 20 prizes!</h1><img id=\"box\" src=\"img/sad/greenopenboxsadthumb.png\"></img></div>","key_press":null,"trial_type":"html-keyboard-response","trial_index":81,"time_elapsed":468147,"internal_node_id":"0.0-19.28-1.28"},{"rt":282.0499999979511,"stimulus":"<p>Choose a box,</p>","button_pressed":3,"trial_type":"html-button-response","trial_index":82,"time_elapsed":468430,"internal_node_id":"0.0-19.29-0.29"},{"rate":0.17682408534369784,"trial_type":"html-keyboard-response","trial_index":83,"time_elapsed":468430,"internal_node_id":"0.0-19.29-1.29"},{"rt":null,"stimulus":"<div style=\"background-color:#6dce98\"><h1 style=\"background-color:MediumSeaGreen\" >You won a prize! Well done!</h1><div style=\"background-color:#6dce98\"><h1 style=\"background-color:MediumSeaGreen\" >Only 2 left to go!</h1><img id=\"box\" src=\"img/prizes/duck.png\"></img><img id=\"box\" src=\"img/empty/redopenbox.png\"></img></div>","key_press":null,"trial_type":"html-keyboard-response","trial_index":83,"time_elapsed":469931,"internal_node_id":"0.0-19.29-1.29"},{"rt":417.15499999921303,"stimulus":"<p>Choose a box,</p>","button_pressed":1,"trial_type":"html-button-response","trial_index":84,"time_elapsed":470349,"internal_node_id":"0.0-19.30-0.30"},{"rate":0.030344332832053265,"trial_type":"html-keyboard-response","trial_index":85,"time_elapsed":470349,"internal_node_id":"0.0-19.30-1.30"},{"rt":null,"stimulus":"<div style=\"background-color:#ff7157\"><h1 style=\"background-color:Tomato\">Bad luck! There was no prize in the box!</h1><h1 style=\"background-color:Tomato\">Remember, you need to keep going until you have 20 prizes!</h1><img id=\"box\" src=\"img/sad/greenopenboxsadthumb.png\"></img></div>","key_press":null,"trial_type":"html-keyboard-response","trial_index":85,"time_elapsed":471850,"internal_node_id":"0.0-19.30-1.30"},{"rt":374.09000000118976,"stimulus":"<p>Choose a box,</p>","button_pressed":2,"trial_type":"html-button-response","trial_index":86,"time_elapsed":472225,"internal_node_id":"0.0-19.31-0.31"},{"rate":0.6963016943894672,"trial_type":"html-keyboard-response","trial_index":87,"time_elapsed":472225,"internal_node_id":"0.0-19.31-1.31"},{"rt":null,"stimulus":"<div style=\"background-color:#6dce98\"><h1 style=\"background-color:MediumSeaGreen\" >You won a prize! Well done!</h1><div style=\"background-color:#6dce98\"><h1 style=\"background-color:MediumSeaGreen\" >Only 1 left to go!</h1><img id=\"box\" src=\"img/prizes/duck.png\"></img><img id=\"box\" src=\"img/empty/purpleopenbox.png\"></img></div>","key_press":null,"trial_type":"html-keyboard-response","trial_index":87,"time_elapsed":473727,"internal_node_id":"0.0-19.31-1.31"},{"rt":475.28500000049826,"stimulus":"<p>Choose a box,</p>","button_pressed":1,"trial_type":"html-button-response","trial_index":88,"time_elapsed":474203,"internal_node_id":"0.0-19.32-0.32"},{"rate":0.030344332832053265,"trial_type":"html-keyboard-response","trial_index":89,"time_elapsed":474203,"internal_node_id":"0.0-19.32-1.32"},{"rt":null,"stimulus":"<div style=\"background-color:#ff7157\"><h1 style=\"background-color:Tomato\">Bad luck! There was no prize in the box!</h1><h1 style=\"background-color:Tomato\">Remember, you need to keep going until you have 20 prizes!</h1><img id=\"box\" src=\"img/sad/greenopenboxsadthumb.png\"></img></div>","key_press":null,"trial_type":"html-keyboard-response","trial_index":89,"time_elapsed":475712,"internal_node_id":"0.0-19.32-1.32"},{"rt":705.5749999999534,"stimulus":"<p>Choose a box,</p>","button_pressed":0,"trial_type":"html-button-response","trial_index":90,"time_elapsed":476420,"internal_node_id":"0.0-19.33-0.33"},{"rate":0.8451127929852871,"trial_type":"html-keyboard-response","trial_index":91,"time_elapsed":476420,"internal_node_id":"0.0-19.33-1.33"},{"rt":null,"stimulus":"<div style=\"background-color:#6dce98\"><h1 style=\"background-color:MediumSeaGreen\" >You won a prize! Well done!</h1><div style=\"background-color:#6dce98\"><h1 style=\"background-color:MediumSeaGreen\" >Only 0 left to go!</h1><img id=\"box\" src=\"img/prizes/ring.png\"></img><img id=\"box\" src=\"img/empty/blueopenbox.png\"></img></div>","key_press":null,"trial_type":"html-keyboard-response","trial_index":91,"time_elapsed":477928,"internal_node_id":"0.0-19.33-1.33"},{"rt":61847.26499999664,"responses":"{\"Q0\":\"I don't have any strong feelings\",\"Q1\":\"When I noticed that some boxes have prizes more often I was choosing them and only sometimes checking on other boxes.\"}","trial_type":"survey-text","trial_index":92,"time_elapsed":539782,"internal_node_id":"0.0-20.0"}]