[{"view_history":"[{\"page_index\":0,\"viewing_time\":31284.88500000094},{\"page_index\":1,\"viewing_time\":17058.55999999767},{\"page_index\":2,\"viewing_time\":30787.640000002284},{\"page_index\":3,\"viewing_time\":14883.20499999827},{\"page_index\":4,\"viewing_time\":12922.829999999522},{\"page_index\":5,\"viewing_time\":40564.72500000018}]","rt":147502.6199999993,"trial_type":"instructions","trial_index":0,"time_elapsed":147505,"internal_node_id":"0.0-0.0"},{"rt":7763.910000001488,"responses":"{\"Q0\":\"Yes\",\"Q1\":\"Yes\",\"Q2\":\"Yes\"}","question_order":"[0,1,2]","trial_type":"survey-multi-choice","trial_index":1,"time_elapsed":155271,"internal_node_id":"0.0-1.0-0.0"},{"rt":18917.140000001382,"responses":"{\"Q0\":\"Yes\",\"Q1\":\"Yes\",\"Q2\":\"Yes\"}","question_order":"[0,1,2]","trial_type":"survey-multi-choice","trial_index":2,"time_elapsed":174191,"internal_node_id":"0.0-2.0-0.0"},{"rt":27402.004999999917,"responses":"{\"Q0\":\"5f27df9a9858eb0008fd7aa3\"}","trial_type":"survey-text","trial_index":3,"time_elapsed":201596,"internal_node_id":"0.0-3.0"},{"rt":4728.250000000116,"responses":"{\"Q0\":\"Male\",\"Q1\":\"35-44\"}","question_order":"[0,1]","trial_type":"survey-multi-choice","trial_index":4,"time_elapsed":206325,"internal_node_id":"0.0-4.0"},{"rt":4841.730000000098,"responses":"{\"Q0\":\"\"}","trial_type":"survey-text","trial_index":5,"time_elapsed":211169,"internal_node_id":"0.0-5.0"},{"view_history":"[{\"page_index\":0,\"viewing_time\":2412.6450000003388}]","rt":2412.964999999531,"trial_type":"instructions","trial_index":6,"time_elapsed":213583,"internal_node_id":"0.0-6.0"},{"rt":27050.96500000218,"responses":"{\"Interested\":3,\"Distressed\":3,\"Excited\":2,\"Upset\":2}","question_order":"[0,1,2,3]","trial_type":"survey-likert","trial_index":7,"time_elapsed":240636,"internal_node_id":"0.0-7.0"},{"rt":9037.29999999996,"responses":"{\"Strong\":2,\"Guilty\":1,\"Scared\":1,\"Hostile\":1}","question_order":"[0,1,2,3]","trial_type":"survey-likert","trial_index":8,"time_elapsed":249676,"internal_node_id":"0.0-8.0"},{"rt":9255.890000000363,"responses":"{\"Enthusiastic\":2,\"Proud\":2,\"Irritable\":2,\"Alert\":3}","question_order":"[0,1,2,3]","trial_type":"survey-likert","trial_index":9,"time_elapsed":258934,"internal_node_id":"0.0-9.0"},{"rt":14535.629999998462,"responses":"{\"Ashamed\":0,\"Inspired\":2,\"Nervous\":1,\"Determined\":2}","question_order":"[0,1,2,3]","trial_type":"survey-likert","trial_index":10,"time_elapsed":273471,"internal_node_id":"0.0-10.0"},{"rt":39320.684999998775,"responses":"{\"Attentive\":3,\"Jittery\":2,\"Active\":2,\"Afraid\":2}","question_order":"[0,1,2,3]","trial_type":"survey-likert","trial_index":11,"time_elapsed":312794,"internal_node_id":"0.0-11.0"},{"rt":19754.605000001844,"responses":"{\"Q0\":1,\"Q1\":0,\"Q2\":0,\"Q3\":1}","question_order":"[0,1,2,3]","trial_type":"survey-likert","trial_index":12,"time_elapsed":332551,"internal_node_id":"0.0-12.0"},{"rt":15510.360000000219,"responses":"{\"Q0\":0,\"Q1\":0,\"Q2\":0,\"Q3\":0}","question_order":"[0,1,2,3]","trial_type":"survey-likert","trial_index":13,"time_elapsed":348063,"internal_node_id":"0.0-13.0"},{"rt":9933.509999998903,"responses":"{\"Q0\":0,\"Q1\":0,\"Q2\":0,\"Q3\":0}","question_order":"[0,1,2,3]","trial_type":"survey-likert","trial_index":14,"time_elapsed":357998,"internal_node_id":"0.0-14.0"},{"rt":14401.975000000675,"responses":"{\"Q0\":0,\"Q1\":0,\"Q2\":1}","question_order":"[0,1,2]","trial_type":"survey-likert","trial_index":15,"time_elapsed":372402,"internal_node_id":"0.0-15.0"},{"view_history":"[{\"page_index\":0,\"viewing_time\":4264.915000003355},{\"page_index\":1,\"viewing_time\":33646.25999999774},{\"page_index\":2,\"viewing_time\":13467.775000000955}]","rt":51379.745000001974,"trial_type":"instructions","trial_index":16,"time_elapsed":423785,"internal_node_id":"0.0-16.0"},{"rt":2353.999999999418,"stimulus":"<p>Choose a box,</p>","button_pressed":1,"trial_type":"html-button-response","trial_index":17,"time_elapsed":426141,"internal_node_id":"0.0-17.0-0.0"},{"rate":0.07809269158866593,"trial_type":"html-keyboard-response","trial_index":18,"time_elapsed":426142,"internal_node_id":"0.0-17.0-1.0"},{"rt":null,"stimulus":"<div style=\"background-color:#ff7157\"><h1 style=\"background-color:Tomato\">Bad luck! There was no prize in the box!</h1><h1 style=\"background-color:Tomato\">Remember, you need to keep going until you have 20 prizes!</h1><img id=\"box\" src=\"img/sad/greenopenboxsadthumb.png\"></img></div>","key_press":null,"trial_type":"html-keyboard-response","trial_index":18,"time_elapsed":427644,"internal_node_id":"0.0-17.0-1.0"},{"rt":2911.950000001525,"stimulus":"<p>Choose a box,</p>","button_pressed":2,"trial_type":"html-button-response","trial_index":19,"time_elapsed":430558,"internal_node_id":"0.0-17.0-0.1"},{"rate":0.4328299778615647,"trial_type":"html-keyboard-response","trial_index":20,"time_elapsed":430559,"internal_node_id":"0.0-17.0-1.1"},{"rt":null,"stimulus":"<div style=\"background-color:#6dce98\"><h1 style=\"background-color:MediumSeaGreen\" >You won a prize! Well done!</h1><div style=\"background-color:#6dce98\"><h1 style=\"background-color:MediumSeaGreen\" >Only 19 left to go!</h1><img id=\"box\" src=\"img/prizes/lolipop.png\"></img><img id=\"box\" src=\"img/empty/purpleopenbox.png\"></img></div>","key_press":null,"trial_type":"html-keyboard-response","trial_index":20,"time_elapsed":432067,"internal_node_id":"0.0-17.0-1.1"},{"rt":1787.9299999986542,"stimulus":"<p>Choose a box,</p>","button_pressed":2,"trial_type":"html-button-response","trial_index":21,"time_elapsed":433856,"internal_node_id":"0.0-17.0-0.2"},{"rate":0.4328299778615647,"trial_type":"html-keyboard-response","trial_index":22,"time_elapsed":433856,"internal_node_id":"0.0-17.0-1.2"},{"rt":null,"stimulus":"<div style=\"background-color:#6dce98\"><h1 style=\"background-color:MediumSeaGreen\" >You won a prize! Well done!</h1><div style=\"background-color:#6dce98\"><h1 style=\"background-color:MediumSeaGreen\" >Only 18 left to go!</h1><img id=\"box\" src=\"img/prizes/choc.png\"></img><img id=\"box\" src=\"img/empty/purpleopenbox.png\"></img></div>","key_press":null,"trial_type":"html-keyboard-response","trial_index":22,"time_elapsed":435365,"internal_node_id":"0.0-17.0-1.2"},{"view_history":"[{\"page_index\":0,\"viewing_time\":7847.164999999222}]","rt":7847.379999999306,"trial_type":"instructions","trial_index":23,"time_elapsed":443214,"internal_node_id":"0.0-18.0"},{"rt":2355.0499999983003,"stimulus":"<p>Choose a box,</p>","button_pressed":1,"trial_type":"html-button-response","trial_index":24,"time_elapsed":445571,"internal_node_id":"0.0-19.0-0.0"},{"rate":0.28030726209768975,"trial_type":"html-keyboard-response","trial_index":25,"time_elapsed":445571,"internal_node_id":"0.0-19.0-1.0"},{"rt":null,"stimulus":"<div style=\"background-color:#ff7157\"><h1 style=\"background-color:Tomato\">Bad luck! There was no prize in the box!</h1><h1 style=\"background-color:Tomato\">Remember, you need to keep going until you have 20 prizes!</h1><img id=\"box\" src=\"img/sad/greenopenboxsadthumb.png\"></img></div>","key_press":null,"trial_type":"html-keyboard-response","trial_index":25,"time_elapsed":447083,"internal_node_id":"0.0-19.0-1.0"},{"rt":1449.9499999983236,"stimulus":"<p>Choose a box,</p>","button_pressed":2,"trial_type":"html-button-response","trial_index":26,"time_elapsed":448536,"internal_node_id":"0.0-19.1-0.1"},{"rate":0.7419162044140826,"trial_type":"html-keyboard-response","trial_index":27,"time_elapsed":448536,"internal_node_id":"0.0-19.1-1.1"},{"rt":null,"stimulus":"<div style=\"background-color:#6dce98\"><h1 style=\"background-color:MediumSeaGreen\" >You won a prize! Well done!</h1><div style=\"background-color:#6dce98\"><h1 style=\"background-color:MediumSeaGreen\" >Only 19 left to go!</h1><img id=\"box\" src=\"img/prizes/flowers.png\"></img><img id=\"box\" src=\"img/empty/purpleopenbox.png\"></img></div>","key_press":null,"trial_type":"html-keyboard-response","trial_index":27,"time_elapsed":450038,"internal_node_id":"0.0-19.1-1.1"},{"rt":731.1149999987101,"stimulus":"<p>Choose a box,</p>","button_pressed":2,"trial_type":"html-button-response","trial_index":28,"time_elapsed":450770,"internal_node_id":"0.0-19.2-0.2"},{"rate":0.7419162044140826,"trial_type":"html-keyboard-response","trial_index":29,"time_elapsed":450770,"internal_node_id":"0.0-19.2-1.2"},{"rt":null,"stimulus":"<div style=\"background-color:#6dce98\"><h1 style=\"background-color:MediumSeaGreen\" >You won a prize! Well done!</h1><div style=\"background-color:#6dce98\"><h1 style=\"background-color:MediumSeaGreen\" >Only 18 left to go!</h1><img id=\"box\" src=\"img/prizes/duck.png\"></img><img id=\"box\" src=\"img/empty/purpleopenbox.png\"></img></div>","key_press":null,"trial_type":"html-keyboard-response","trial_index":29,"time_elapsed":452287,"internal_node_id":"0.0-19.2-1.2"},{"rt":763.9500000004773,"stimulus":"<p>Choose a box,</p>","button_pressed":2,"trial_type":"html-button-response","trial_index":30,"time_elapsed":453053,"internal_node_id":"0.0-19.3-0.3"},{"rate":0.7419162044140826,"trial_type":"html-keyboard-response","trial_index":31,"time_elapsed":453053,"internal_node_id":"0.0-19.3-1.3"},{"rt":null,"stimulus":"<div style=\"background-color:#6dce98\"><h1 style=\"background-color:MediumSeaGreen\" >You won a prize! Well done!</h1><div style=\"background-color:#6dce98\"><h1 style=\"background-color:MediumSeaGreen\" >Only 17 left to go!</h1><img id=\"box\" src=\"img/prizes/coins.png\"></img><img id=\"box\" src=\"img/empty/purpleopenbox.png\"></img></div>","key_press":null,"trial_type":"html-keyboard-response","trial_index":31,"time_elapsed":454567,"internal_node_id":"0.0-19.3-1.3"},{"rt":497.3500000014901,"stimulus":"<p>Choose a box,</p>","button_pressed":2,"trial_type":"html-button-response","trial_index":32,"time_elapsed":455066,"internal_node_id":"0.0-19.4-0.4"},{"rate":0.7419162044140826,"trial_type":"html-keyboard-response","trial_index":33,"time_elapsed":455066,"internal_node_id":"0.0-19.4-1.4"},{"rt":null,"stimulus":"<div style=\"background-color:#6dce98\"><h1 style=\"background-color:MediumSeaGreen\" >You won a prize! Well done!</h1><div style=\"background-color:#6dce98\"><h1 style=\"background-color:MediumSeaGreen\" >Only 16 left to go!</h1><img id=\"box\" src=\"img/prizes/bear.png\"></img><img id=\"box\" src=\"img/empty/purpleopenbox.png\"></img></div>","key_press":null,"trial_type":"html-keyboard-response","trial_index":33,"time_elapsed":456582,"internal_node_id":"0.0-19.4-1.4"},{"rt":638.5149999987334,"stimulus":"<p>Choose a box,</p>","button_pressed":2,"trial_type":"html-button-response","trial_index":34,"time_elapsed":457222,"internal_node_id":"0.0-19.5-0.5"},{"rate":0.7419162044140826,"trial_type":"html-keyboard-response","trial_index":35,"time_elapsed":457222,"internal_node_id":"0.0-19.5-1.5"},{"rt":null,"stimulus":"<div style=\"background-color:#6dce98\"><h1 style=\"background-color:MediumSeaGreen\" >You won a prize! Well done!</h1><div style=\"background-color:#6dce98\"><h1 style=\"background-color:MediumSeaGreen\" >Only 15 left to go!</h1><img id=\"box\" src=\"img/prizes/coins.png\"></img><img id=\"box\" src=\"img/empty/purpleopenbox.png\"></img></div>","key_press":null,"trial_type":"html-keyboard-response","trial_index":35,"time_elapsed":458738,"internal_node_id":"0.0-19.5-1.5"},{"rt":603.7099999993807,"stimulus":"<p>Choose a box,</p>","button_pressed":2,"trial_type":"html-button-response","trial_index":36,"time_elapsed":459343,"internal_node_id":"0.0-19.6-0.6"},{"rate":0.7419162044140826,"trial_type":"html-keyboard-response","trial_index":37,"time_elapsed":459343,"internal_node_id":"0.0-19.6-1.6"},{"rt":null,"stimulus":"<div style=\"background-color:#6dce98\"><h1 style=\"background-color:MediumSeaGreen\" >You won a prize! Well done!</h1><div style=\"background-color:#6dce98\"><h1 style=\"background-color:MediumSeaGreen\" >Only 14 left to go!</h1><img id=\"box\" src=\"img/prizes/beachball.png\"></img><img id=\"box\" src=\"img/empty/purpleopenbox.png\"></img></div>","key_press":null,"trial_type":"html-keyboard-response","trial_index":37,"time_elapsed":460849,"internal_node_id":"0.0-19.6-1.6"},{"rt":483.46999999921536,"stimulus":"<p>Choose a box,</p>","button_pressed":2,"trial_type":"html-button-response","trial_index":38,"time_elapsed":461334,"internal_node_id":"0.0-19.7-0.7"},{"rate":0.7419162044140826,"trial_type":"html-keyboard-response","trial_index":39,"time_elapsed":461335,"internal_node_id":"0.0-19.7-1.7"},{"rt":null,"stimulus":"<div style=\"background-color:#6dce98\"><h1 style=\"background-color:MediumSeaGreen\" >You won a prize! Well done!</h1><div style=\"background-color:#6dce98\"><h1 style=\"background-color:MediumSeaGreen\" >Only 13 left to go!</h1><img id=\"box\" src=\"img/prizes/flowers.png\"></img><img id=\"box\" src=\"img/empty/purpleopenbox.png\"></img></div>","key_press":null,"trial_type":"html-keyboard-response","trial_index":39,"time_elapsed":462842,"internal_node_id":"0.0-19.7-1.7"},{"rt":1096.6600000028848,"stimulus":"<p>Choose a box,</p>","button_pressed":2,"trial_type":"html-button-response","trial_index":40,"time_elapsed":463940,"internal_node_id":"0.0-19.8-0.8"},{"rate":0.7419162044140826,"trial_type":"html-keyboard-response","trial_index":41,"time_elapsed":463940,"internal_node_id":"0.0-19.8-1.8"},{"rt":null,"stimulus":"<div style=\"background-color:#6dce98\"><h1 style=\"background-color:MediumSeaGreen\" >You won a prize! Well done!</h1><div style=\"background-color:#6dce98\"><h1 style=\"background-color:MediumSeaGreen\" >Only 12 left to go!</h1><img id=\"box\" src=\"img/prizes/lolipop.png\"></img><img id=\"box\" src=\"img/empty/purpleopenbox.png\"></img></div>","key_press":null,"trial_type":"html-keyboard-response","trial_index":41,"time_elapsed":465444,"internal_node_id":"0.0-19.8-1.8"},{"rt":653.0800000000163,"stimulus":"<p>Choose a box,</p>","button_pressed":2,"trial_type":"html-button-response","trial_index":42,"time_elapsed":466099,"internal_node_id":"0.0-19.9-0.9"},{"rate":0.7419162044140826,"trial_type":"html-keyboard-response","trial_index":43,"time_elapsed":466099,"internal_node_id":"0.0-19.9-1.9"},{"rt":null,"stimulus":"<div style=\"background-color:#6dce98\"><h1 style=\"background-color:MediumSeaGreen\" >You won a prize! Well done!</h1><div style=\"background-color:#6dce98\"><h1 style=\"background-color:MediumSeaGreen\" >Only 11 left to go!</h1><img id=\"box\" src=\"img/prizes/yoyo.png\"></img><img id=\"box\" src=\"img/empty/purpleopenbox.png\"></img></div>","key_press":null,"trial_type":"html-keyboard-response","trial_index":43,"time_elapsed":467614,"internal_node_id":"0.0-19.9-1.9"},{"rt":654.0600000007544,"stimulus":"<p>Choose a box,</p>","button_pressed":2,"trial_type":"html-button-response","trial_index":44,"time_elapsed":468270,"internal_node_id":"0.0-19.10-0.10"},{"rate":0.7419162044140826,"trial_type":"html-keyboard-response","trial_index":45,"time_elapsed":468270,"internal_node_id":"0.0-19.10-1.10"},{"rt":null,"stimulus":"<div style=\"background-color:#ff7157\"><h1 style=\"background-color:Tomato\">Bad luck! There was no prize in the box!</h1><h1 style=\"background-color:Tomato\">Remember, you need to keep going until you have 20 prizes!</h1><img id=\"box\" src=\"img/sad/purpleopenboxsadthumb.png\"></img></div>","key_press":null,"trial_type":"html-keyboard-response","trial_index":45,"time_elapsed":469784,"internal_node_id":"0.0-19.10-1.10"},{"rt":758.8350000005448,"stimulus":"<p>Choose a box,</p>","button_pressed":3,"trial_type":"html-button-response","trial_index":46,"time_elapsed":470544,"internal_node_id":"0.0-19.11-0.11"},{"rate":0.5272123682599201,"trial_type":"html-keyboard-response","trial_index":47,"time_elapsed":470544,"internal_node_id":"0.0-19.11-1.11"},{"rt":null,"stimulus":"<div style=\"background-color:#6dce98\"><h1 style=\"background-color:MediumSeaGreen\" >You won a prize! Well done!</h1><div style=\"background-color:#6dce98\"><h1 style=\"background-color:MediumSeaGreen\" >Only 10 left to go!</h1><img id=\"box\" src=\"img/prizes/flowers.png\"></img><img id=\"box\" src=\"img/empty/redopenbox.png\"></img></div>","key_press":null,"trial_type":"html-keyboard-response","trial_index":47,"time_elapsed":472051,"internal_node_id":"0.0-19.11-1.11"},{"rt":651.1099999988219,"stimulus":"<p>Choose a box,</p>","button_pressed":3,"trial_type":"html-button-response","trial_index":48,"time_elapsed":472703,"internal_node_id":"0.0-19.12-0.12"},{"rate":0.5272123682599201,"trial_type":"html-keyboard-response","trial_index":49,"time_elapsed":472703,"internal_node_id":"0.0-19.12-1.12"},{"rt":null,"stimulus":"<div style=\"background-color:#6dce98\"><h1 style=\"background-color:MediumSeaGreen\" >You won a prize! Well done!</h1><div style=\"background-color:#6dce98\"><h1 style=\"background-color:MediumSeaGreen\" >Only 9 left to go!</h1><img id=\"box\" src=\"img/prizes/flowers.png\"></img><img id=\"box\" src=\"img/empty/redopenbox.png\"></img></div>","key_press":null,"trial_type":"html-keyboard-response","trial_index":49,"time_elapsed":474205,"internal_node_id":"0.0-19.12-1.12"},{"rt":639.8700000027311,"stimulus":"<p>Choose a box,</p>","button_pressed":0,"trial_type":"html-button-response","trial_index":50,"time_elapsed":474847,"internal_node_id":"0.0-19.13-0.13"},{"rate":0.39691221590947195,"trial_type":"html-keyboard-response","trial_index":51,"time_elapsed":474847,"internal_node_id":"0.0-19.13-1.13"},{"rt":null,"stimulus":"<div style=\"background-color:#ff7157\"><h1 style=\"background-color:Tomato\">Bad luck! There was no prize in the box!</h1><h1 style=\"background-color:Tomato\">Remember, you need to keep going until you have 20 prizes!</h1><img id=\"box\" src=\"img/sad/blueopenboxsadthumb.png\"></img></div>","key_press":null,"trial_type":"html-keyboard-response","trial_index":51,"time_elapsed":476363,"internal_node_id":"0.0-19.13-1.13"},{"rt":790.4999999991851,"stimulus":"<p>Choose a box,</p>","button_pressed":1,"trial_type":"html-button-response","trial_index":52,"time_elapsed":477155,"internal_node_id":"0.0-19.14-0.14"},{"rate":0.28030726209768975,"trial_type":"html-keyboard-response","trial_index":53,"time_elapsed":477155,"internal_node_id":"0.0-19.14-1.14"},{"rt":null,"stimulus":"<div style=\"background-color:#ff7157\"><h1 style=\"background-color:Tomato\">Bad luck! There was no prize in the box!</h1><h1 style=\"background-color:Tomato\">Remember, you need to keep going until you have 20 prizes!</h1><img id=\"box\" src=\"img/sad/greenopenboxsadthumb.png\"></img></div>","key_press":null,"trial_type":"html-keyboard-response","trial_index":53,"time_elapsed":478658,"internal_node_id":"0.0-19.14-1.14"},{"rt":424.71499999740627,"stimulus":"<p>Choose a box,</p>","button_pressed":3,"trial_type":"html-button-response","trial_index":54,"time_elapsed":479084,"internal_node_id":"0.0-19.15-0.15"},{"rate":0.5272123682599201,"trial_type":"html-keyboard-response","trial_index":55,"time_elapsed":479084,"internal_node_id":"0.0-19.15-1.15"},{"rt":null,"stimulus":"<div style=\"background-color:#ff7157\"><h1 style=\"background-color:Tomato\">Bad luck! There was no prize in the box!</h1><h1 style=\"background-color:Tomato\">Remember, you need to keep going until you have 20 prizes!</h1><img id=\"box\" src=\"img/sad/redopenboxsadthumb.png\"></img></div>","key_press":null,"trial_type":"html-keyboard-response","trial_index":55,"time_elapsed":480586,"internal_node_id":"0.0-19.15-1.15"},{"rt":420.88000000145985,"stimulus":"<p>Choose a box,</p>","button_pressed":2,"trial_type":"html-button-response","trial_index":56,"time_elapsed":481008,"internal_node_id":"0.0-19.16-0.16"},{"rate":0.7419162044140826,"trial_type":"html-keyboard-response","trial_index":57,"time_elapsed":481008,"internal_node_id":"0.0-19.16-1.16"},{"rt":null,"stimulus":"<div style=\"background-color:#6dce98\"><h1 style=\"background-color:MediumSeaGreen\" >You won a prize! Well done!</h1><div style=\"background-color:#6dce98\"><h1 style=\"background-color:MediumSeaGreen\" >Only 8 left to go!</h1><img id=\"box\" src=\"img/prizes/flowers.png\"></img><img id=\"box\" src=\"img/empty/purpleopenbox.png\"></img></div>","key_press":null,"trial_type":"html-keyboard-response","trial_index":57,"time_elapsed":482520,"internal_node_id":"0.0-19.16-1.16"},{"rt":402.83500000077765,"stimulus":"<p>Choose a box,</p>","button_pressed":2,"trial_type":"html-button-response","trial_index":58,"time_elapsed":482924,"internal_node_id":"0.0-19.17-0.17"},{"rate":0.7419162044140826,"trial_type":"html-keyboard-response","trial_index":59,"time_elapsed":482924,"internal_node_id":"0.0-19.17-1.17"},{"rt":null,"stimulus":"<div style=\"background-color:#6dce98\"><h1 style=\"background-color:MediumSeaGreen\" >You won a prize! Well done!</h1><div style=\"background-color:#6dce98\"><h1 style=\"background-color:MediumSeaGreen\" >Only 7 left to go!</h1><img id=\"box\" src=\"img/prizes/choc.png\"></img><img id=\"box\" src=\"img/empty/purpleopenbox.png\"></img></div>","key_press":null,"trial_type":"html-keyboard-response","trial_index":59,"time_elapsed":484426,"internal_node_id":"0.0-19.17-1.17"},{"rt":344.12499999965075,"stimulus":"<p>Choose a box,</p>","button_pressed":2,"trial_type":"html-button-response","trial_index":60,"time_elapsed":484772,"internal_node_id":"0.0-19.18-0.18"},{"rate":0.7419162044140826,"trial_type":"html-keyboard-response","trial_index":61,"time_elapsed":484772,"internal_node_id":"0.0-19.18-1.18"},{"rt":null,"stimulus":"<div style=\"background-color:#6dce98\"><h1 style=\"background-color:MediumSeaGreen\" >You won a prize! Well done!</h1><div style=\"background-color:#6dce98\"><h1 style=\"background-color:MediumSeaGreen\" >Only 6 left to go!</h1><img id=\"box\" src=\"img/prizes/bear.png\"></img><img id=\"box\" src=\"img/empty/purpleopenbox.png\"></img></div>","key_press":null,"trial_type":"html-keyboard-response","trial_index":61,"time_elapsed":486286,"internal_node_id":"0.0-19.18-1.18"},{"rt":324.4550000017625,"stimulus":"<p>Choose a box,</p>","button_pressed":2,"trial_type":"html-button-response","trial_index":62,"time_elapsed":486612,"internal_node_id":"0.0-19.19-0.19"},{"rate":0.7419162044140826,"trial_type":"html-keyboard-response","trial_index":63,"time_elapsed":486612,"internal_node_id":"0.0-19.19-1.19"},{"rt":null,"stimulus":"<div style=\"background-color:#6dce98\"><h1 style=\"background-color:MediumSeaGreen\" >You won a prize! Well done!</h1><div style=\"background-color:#6dce98\"><h1 style=\"background-color:MediumSeaGreen\" >Only 5 left to go!</h1><img id=\"box\" src=\"img/prizes/bear.png\"></img><img id=\"box\" src=\"img/empty/purpleopenbox.png\"></img></div>","key_press":null,"trial_type":"html-keyboard-response","trial_index":63,"time_elapsed":488128,"internal_node_id":"0.0-19.19-1.19"},{"rt":352.2100000009523,"stimulus":"<p>Choose a box,</p>","button_pressed":2,"trial_type":"html-button-response","trial_index":64,"time_elapsed":488482,"internal_node_id":"0.0-19.20-0.20"},{"rate":0.7419162044140826,"trial_type":"html-keyboard-response","trial_index":65,"time_elapsed":488482,"internal_node_id":"0.0-19.20-1.20"},{"rt":null,"stimulus":"<div style=\"background-color:#6dce98\"><h1 style=\"background-color:MediumSeaGreen\" >You won a prize! Well done!</h1><div style=\"background-color:#6dce98\"><h1 style=\"background-color:MediumSeaGreen\" >Only 4 left to go!</h1><img id=\"box\" src=\"img/prizes/choc.png\"></img><img id=\"box\" src=\"img/empty/purpleopenbox.png\"></img></div>","key_press":null,"trial_type":"html-keyboard-response","trial_index":65,"time_elapsed":489988,"internal_node_id":"0.0-19.20-1.20"},{"rt":324.1699999998673,"stimulus":"<p>Choose a box,</p>","button_pressed":2,"trial_type":"html-button-response","trial_index":66,"time_elapsed":490314,"internal_node_id":"0.0-19.21-0.21"},{"rate":0.7419162044140826,"trial_type":"html-keyboard-response","trial_index":67,"time_elapsed":490314,"internal_node_id":"0.0-19.21-1.21"},{"rt":null,"stimulus":"<div style=\"background-color:#ff7157\"><h1 style=\"background-color:Tomato\">Bad luck! There was no prize in the box!</h1><h1 style=\"background-color:Tomato\">Remember, you need to keep going until you have 20 prizes!</h1><img id=\"box\" src=\"img/sad/purpleopenboxsadthumb.png\"></img></div>","key_press":null,"trial_type":"html-keyboard-response","trial_index":67,"time_elapsed":491816,"internal_node_id":"0.0-19.21-1.21"},{"rt":620.9349999990081,"stimulus":"<p>Choose a box,</p>","button_pressed":0,"trial_type":"html-button-response","trial_index":68,"time_elapsed":492439,"internal_node_id":"0.0-19.22-0.22"},{"rate":0.39691221590947195,"trial_type":"html-keyboard-response","trial_index":69,"time_elapsed":492439,"internal_node_id":"0.0-19.22-1.22"},{"rt":null,"stimulus":"<div style=\"background-color:#ff7157\"><h1 style=\"background-color:Tomato\">Bad luck! There was no prize in the box!</h1><h1 style=\"background-color:Tomato\">Remember, you need to keep going until you have 20 prizes!</h1><img id=\"box\" src=\"img/sad/blueopenboxsadthumb.png\"></img></div>","key_press":null,"trial_type":"html-keyboard-response","trial_index":69,"time_elapsed":493941,"internal_node_id":"0.0-19.22-1.22"},{"rt":513.3300000015879,"stimulus":"<p>Choose a box,</p>","button_pressed":1,"trial_type":"html-button-response","trial_index":70,"time_elapsed":494456,"internal_node_id":"0.0-19.23-0.23"},{"rate":0.28030726209768975,"trial_type":"html-keyboard-response","trial_index":71,"time_elapsed":494456,"internal_node_id":"0.0-19.23-1.23"},{"rt":null,"stimulus":"<div style=\"background-color:#ff7157\"><h1 style=\"background-color:Tomato\">Bad luck! There was no prize in the box!</h1><h1 style=\"background-color:Tomato\">Remember, you need to keep going until you have 20 prizes!</h1><img id=\"box\" src=\"img/sad/greenopenboxsadthumb.png\"></img></div>","key_press":null,"trial_type":"html-keyboard-response","trial_index":71,"time_elapsed":495957,"internal_node_id":"0.0-19.23-1.23"},{"rt":454.77499999827705,"stimulus":"<p>Choose a box,</p>","button_pressed":3,"trial_type":"html-button-response","trial_index":72,"time_elapsed":496413,"internal_node_id":"0.0-19.24-0.24"},{"rate":0.5272123682599201,"trial_type":"html-keyboard-response","trial_index":73,"time_elapsed":496414,"internal_node_id":"0.0-19.24-1.24"},{"rt":null,"stimulus":"<div style=\"background-color:#ff7157\"><h1 style=\"background-color:Tomato\">Bad luck! There was no prize in the box!</h1><h1 style=\"background-color:Tomato\">Remember, you need to keep going until you have 20 prizes!</h1><img id=\"box\" src=\"img/sad/redopenboxsadthumb.png\"></img></div>","key_press":null,"trial_type":"html-keyboard-response","trial_index":73,"time_elapsed":497915,"internal_node_id":"0.0-19.24-1.24"},{"rt":584.6600000003818,"stimulus":"<p>Choose a box,</p>","button_pressed":2,"trial_type":"html-button-response","trial_index":74,"time_elapsed":498501,"internal_node_id":"0.0-19.25-0.25"},{"rate":0.7419162044140826,"trial_type":"html-keyboard-response","trial_index":75,"time_elapsed":498501,"internal_node_id":"0.0-19.25-1.25"},{"rt":null,"stimulus":"<div style=\"background-color:#6dce98\"><h1 style=\"background-color:MediumSeaGreen\" >You won a prize! Well done!</h1><div style=\"background-color:#6dce98\"><h1 style=\"background-color:MediumSeaGreen\" >Only 3 left to go!</h1><img id=\"box\" src=\"img/prizes/duck.png\"></img><img id=\"box\" src=\"img/empty/purpleopenbox.png\"></img></div>","key_press":null,"trial_type":"html-keyboard-response","trial_index":75,"time_elapsed":500004,"internal_node_id":"0.0-19.25-1.25"},{"rt":579.9799999986426,"stimulus":"<p>Choose a box,</p>","button_pressed":2,"trial_type":"html-button-response","trial_index":76,"time_elapsed":500586,"internal_node_id":"0.0-19.26-0.26"},{"rate":0.7419162044140826,"trial_type":"html-keyboard-response","trial_index":77,"time_elapsed":500586,"internal_node_id":"0.0-19.26-1.26"},{"rt":null,"stimulus":"<div style=\"background-color:#6dce98\"><h1 style=\"background-color:MediumSeaGreen\" >You won a prize! Well done!</h1><div style=\"background-color:#6dce98\"><h1 style=\"background-color:MediumSeaGreen\" >Only 2 left to go!</h1><img id=\"box\" src=\"img/prizes/beachball.png\"></img><img id=\"box\" src=\"img/empty/purpleopenbox.png\"></img></div>","key_press":null,"trial_type":"html-keyboard-response","trial_index":77,"time_elapsed":502098,"internal_node_id":"0.0-19.26-1.26"},{"rt":395.26999999728287,"stimulus":"<p>Choose a box,</p>","button_pressed":2,"trial_type":"html-button-response","trial_index":78,"time_elapsed":502495,"internal_node_id":"0.0-19.27-0.27"},{"rate":0.7419162044140826,"trial_type":"html-keyboard-response","trial_index":79,"time_elapsed":502496,"internal_node_id":"0.0-19.27-1.27"},{"rt":null,"stimulus":"<div style=\"background-color:#6dce98\"><h1 style=\"background-color:MediumSeaGreen\" >You won a prize! Well done!</h1><div style=\"background-color:#6dce98\"><h1 style=\"background-color:MediumSeaGreen\" >Only 1 left to go!</h1><img id=\"box\" src=\"img/prizes/coins.png\"></img><img id=\"box\" src=\"img/empty/purpleopenbox.png\"></img></div>","key_press":null,"trial_type":"html-keyboard-response","trial_index":79,"time_elapsed":504008,"internal_node_id":"0.0-19.27-1.27"},{"rt":689.8249999976833,"stimulus":"<p>Choose a box,</p>","button_pressed":2,"trial_type":"html-button-response","trial_index":80,"time_elapsed":504699,"internal_node_id":"0.0-19.28-0.28"},{"rate":0.7419162044140826,"trial_type":"html-keyboard-response","trial_index":81,"time_elapsed":504699,"internal_node_id":"0.0-19.28-1.28"},{"rt":null,"stimulus":"<div style=\"background-color:#6dce98\"><h1 style=\"background-color:MediumSeaGreen\" >You won a prize! Well done!</h1><div style=\"background-color:#6dce98\"><h1 style=\"background-color:MediumSeaGreen\" >Only 0 left to go!</h1><img id=\"box\" src=\"img/prizes/lolipop.png\"></img><img id=\"box\" src=\"img/empty/purpleopenbox.png\"></img></div>","key_press":null,"trial_type":"html-keyboard-response","trial_index":81,"time_elapsed":506204,"internal_node_id":"0.0-19.28-1.28"},{"rt":127549.21499999915,"responses":"{\"Q0\":\"Cannot understand the prupose of it.\",\"Q1\":\"Choose the same box until fail. Try from  left to right until get the prize. \"}","trial_type":"survey-text","trial_index":82,"time_elapsed":633771,"internal_node_id":"0.0-20.0"}]