[{"view_history":"[{\"page_index\":0,\"viewing_time\":14874.564999947324},{\"page_index\":1,\"viewing_time\":4847.365000052378},{\"page_index\":2,\"viewing_time\":13528.189999982715},{\"page_index\":3,\"viewing_time\":9616.080000065267},{\"page_index\":4,\"viewing_time\":1743.999999947846},{\"page_index\":5,\"viewing_time\":1767.9250000510365}]","rt":46378.650000086054,"trial_type":"instructions","trial_index":0,"time_elapsed":46380,"internal_node_id":"0.0-0.0"},{"rt":9126.945000141859,"responses":"{\"Q0\":\"Yes\",\"Q1\":\"Yes\",\"Q2\":\"Yes\"}","question_order":"[0,1,2]","trial_type":"survey-multi-choice","trial_index":1,"time_elapsed":55508,"internal_node_id":"0.0-1.0-0.0"},{"rt":14070.365000050515,"responses":"{\"Q0\":\"Yes\",\"Q1\":\"Yes\",\"Q2\":\"Yes\"}","question_order":"[0,1,2]","trial_type":"survey-multi-choice","trial_index":2,"time_elapsed":69580,"internal_node_id":"0.0-2.0-0.0"},{"rt":9790.070000104606,"responses":"{\"Q0\":\"5e548644467c4e496a933633\"}","trial_type":"survey-text","trial_index":3,"time_elapsed":79372,"internal_node_id":"0.0-3.0"},{"rt":4759.235000004992,"responses":"{\"Q0\":\"Male\",\"Q1\":\"45-54\"}","question_order":"[0,1]","trial_type":"survey-multi-choice","trial_index":4,"time_elapsed":84132,"internal_node_id":"0.0-4.0"},{"rt":3710.355000104755,"responses":"{\"Q0\":\"\"}","trial_type":"survey-text","trial_index":5,"time_elapsed":87844,"internal_node_id":"0.0-5.0"},{"view_history":"[{\"page_index\":0,\"viewing_time\":3455.2150000818074}]","rt":3455.430000089109,"trial_type":"instructions","trial_index":6,"time_elapsed":91300,"internal_node_id":"0.0-6.0"},{"rt":27071.629999903962,"responses":"{\"Interested\":1,\"Distressed\":3,\"Excited\":0,\"Upset\":2}","question_order":"[0,1,2,3]","trial_type":"survey-likert","trial_index":7,"time_elapsed":118372,"internal_node_id":"0.0-7.0"},{"rt":14550.719999941066,"responses":"{\"Strong\":0,\"Guilty\":2,\"Scared\":3,\"Hostile\":3}","question_order":"[0,1,2,3]","trial_type":"survey-likert","trial_index":8,"time_elapsed":132924,"internal_node_id":"0.0-8.0"},{"rt":10982.475000200793,"responses":"{\"Enthusiastic\":0,\"Proud\":0,\"Irritable\":3,\"Alert\":1}","question_order":"[0,1,2,3]","trial_type":"survey-likert","trial_index":9,"time_elapsed":143908,"internal_node_id":"0.0-9.0"},{"rt":13014.73500020802,"responses":"{\"Ashamed\":2,\"Inspired\":0,\"Nervous\":3,\"Determined\":1}","question_order":"[0,1,2,3]","trial_type":"survey-likert","trial_index":10,"time_elapsed":156924,"internal_node_id":"0.0-10.0"},{"rt":10398.869999917224,"responses":"{\"Attentive\":2,\"Jittery\":3,\"Active\":0,\"Afraid\":3}","question_order":"[0,1,2,3]","trial_type":"survey-likert","trial_index":11,"time_elapsed":167324,"internal_node_id":"0.0-11.0"},{"rt":16262.559999944642,"responses":"{\"Q0\":3,\"Q1\":2,\"Q2\":0,\"Q3\":1}","question_order":"[0,1,2,3]","trial_type":"survey-likert","trial_index":12,"time_elapsed":183588,"internal_node_id":"0.0-12.0"},{"rt":22118.75499994494,"responses":"{\"Q0\":1,\"Q1\":3,\"Q2\":1,\"Q3\":0}","question_order":"[0,1,2,3]","trial_type":"survey-likert","trial_index":13,"time_elapsed":205708,"internal_node_id":"0.0-13.0"},{"rt":14574.795000022277,"responses":"{\"Q0\":2,\"Q1\":2,\"Q2\":2,\"Q3\":2}","question_order":"[0,1,2,3]","trial_type":"survey-likert","trial_index":14,"time_elapsed":220284,"internal_node_id":"0.0-14.0"},{"rt":9886.935000075027,"responses":"{\"Q0\":1,\"Q1\":3,\"Q2\":3}","question_order":"[0,1,2]","trial_type":"survey-likert","trial_index":15,"time_elapsed":230173,"internal_node_id":"0.0-15.0"},{"view_history":"[{\"page_index\":0,\"viewing_time\":5856.204999843612},{\"page_index\":1,\"viewing_time\":8040.020000189543},{\"page_index\":2,\"viewing_time\":6375.814999919385}]","rt":20272.269999841228,"trial_type":"instructions","trial_index":16,"time_elapsed":250452,"internal_node_id":"0.0-16.0"},{"rt":2031.0500001069158,"stimulus":"<p>Choose a box,</p>","button_pressed":3,"trial_type":"html-button-response","trial_index":17,"time_elapsed":252485,"internal_node_id":"0.0-17.0-0.0"},{"rate":0.6830287879601771,"trial_type":"html-keyboard-response","trial_index":18,"time_elapsed":252485,"internal_node_id":"0.0-17.0-1.0"},{"rt":null,"stimulus":"<div style=\"background-color:#ff7157\"><h1 style=\"background-color:Tomato\">Bad luck! There was no prize in the box!</h1><h1 style=\"background-color:Tomato\">Remember, you need to keep going until you have 20 prizes!</h1><img id=\"box\" src=\"img/sad/redopenboxsadthumb.png\"></img></div>","key_press":null,"trial_type":"html-keyboard-response","trial_index":18,"time_elapsed":253986,"internal_node_id":"0.0-17.0-1.0"},{"rt":1656.6800000146031,"stimulus":"<p>Choose a box,</p>","button_pressed":2,"trial_type":"html-button-response","trial_index":19,"time_elapsed":255644,"internal_node_id":"0.0-17.0-0.1"},{"rate":0.22828351674176786,"trial_type":"html-keyboard-response","trial_index":20,"time_elapsed":255644,"internal_node_id":"0.0-17.0-1.1"},{"rt":null,"stimulus":"<div style=\"background-color:#ff7157\"><h1 style=\"background-color:Tomato\">Bad luck! There was no prize in the box!</h1><h1 style=\"background-color:Tomato\">Remember, you need to keep going until you have 20 prizes!</h1><img id=\"box\" src=\"img/sad/purpleopenboxsadthumb.png\"></img></div>","key_press":null,"trial_type":"html-keyboard-response","trial_index":20,"time_elapsed":257146,"internal_node_id":"0.0-17.0-1.1"},{"rt":1056.9149998482317,"stimulus":"<p>Choose a box,</p>","button_pressed":1,"trial_type":"html-button-response","trial_index":21,"time_elapsed":258204,"internal_node_id":"0.0-17.0-0.2"},{"rate":0.5505985286872751,"trial_type":"html-keyboard-response","trial_index":22,"time_elapsed":258204,"internal_node_id":"0.0-17.0-1.2"},{"rt":null,"stimulus":"<div style=\"background-color:#6dce98\"><h1 style=\"background-color:MediumSeaGreen\" >You won a prize! Well done!</h1><div style=\"background-color:#6dce98\"><h1 style=\"background-color:MediumSeaGreen\" >Only 19 left to go!</h1><img id=\"box\" src=\"img/prizes/duck.png\"></img><img id=\"box\" src=\"img/empty/greenopenbox.png\"></img></div>","key_press":null,"trial_type":"html-keyboard-response","trial_index":22,"time_elapsed":259705,"internal_node_id":"0.0-17.0-1.2"},{"view_history":"[{\"page_index\":0,\"viewing_time\":6753.065000055358}]","rt":6753.285000100732,"trial_type":"instructions","trial_index":23,"time_elapsed":266460,"internal_node_id":"0.0-18.0"},{"rt":1271.1050000507385,"stimulus":"<p>Choose a box,</p>","button_pressed":0,"trial_type":"html-button-response","trial_index":24,"time_elapsed":267732,"internal_node_id":"0.0-19.0-0.0"},{"rate":0.3644786330503746,"trial_type":"html-keyboard-response","trial_index":25,"time_elapsed":267732,"internal_node_id":"0.0-19.0-1.0"},{"rt":null,"stimulus":"<div style=\"background-color:#ff7157\"><h1 style=\"background-color:Tomato\">Bad luck! There was no prize in the box!</h1><h1 style=\"background-color:Tomato\">Remember, you need to keep going until you have 20 prizes!</h1><img id=\"box\" src=\"img/sad/blueopenboxsadthumb.png\"></img></div>","key_press":null,"trial_type":"html-keyboard-response","trial_index":25,"time_elapsed":269233,"internal_node_id":"0.0-19.0-1.0"},{"rt":1290.4600000474602,"stimulus":"<p>Choose a box,</p>","button_pressed":3,"trial_type":"html-button-response","trial_index":26,"time_elapsed":270524,"internal_node_id":"0.0-19.1-0.1"},{"rate":0.6688132421835374,"trial_type":"html-keyboard-response","trial_index":27,"time_elapsed":270524,"internal_node_id":"0.0-19.1-1.1"},{"rt":null,"stimulus":"<div style=\"background-color:#6dce98\"><h1 style=\"background-color:MediumSeaGreen\" >You won a prize! Well done!</h1><div style=\"background-color:#6dce98\"><h1 style=\"background-color:MediumSeaGreen\" >Only 19 left to go!</h1><img id=\"box\" src=\"img/prizes/lolipop.png\"></img><img id=\"box\" src=\"img/empty/redopenbox.png\"></img></div>","key_press":null,"trial_type":"html-keyboard-response","trial_index":27,"time_elapsed":272026,"internal_node_id":"0.0-19.1-1.1"},{"rt":1104.740000097081,"stimulus":"<p>Choose a box,</p>","button_pressed":3,"trial_type":"html-button-response","trial_index":28,"time_elapsed":273132,"internal_node_id":"0.0-19.2-0.2"},{"rate":0.6688132421835374,"trial_type":"html-keyboard-response","trial_index":29,"time_elapsed":273132,"internal_node_id":"0.0-19.2-1.2"},{"rt":null,"stimulus":"<div style=\"background-color:#6dce98\"><h1 style=\"background-color:MediumSeaGreen\" >You won a prize! Well done!</h1><div style=\"background-color:#6dce98\"><h1 style=\"background-color:MediumSeaGreen\" >Only 18 left to go!</h1><img id=\"box\" src=\"img/prizes/bear.png\"></img><img id=\"box\" src=\"img/empty/redopenbox.png\"></img></div>","key_press":null,"trial_type":"html-keyboard-response","trial_index":29,"time_elapsed":274633,"internal_node_id":"0.0-19.2-1.2"},{"rt":769.7949998546392,"stimulus":"<p>Choose a box,</p>","button_pressed":2,"trial_type":"html-button-response","trial_index":30,"time_elapsed":275404,"internal_node_id":"0.0-19.3-0.3"},{"rate":0.21422822375921255,"trial_type":"html-keyboard-response","trial_index":31,"time_elapsed":275404,"internal_node_id":"0.0-19.3-1.3"},{"rt":null,"stimulus":"<div style=\"background-color:#ff7157\"><h1 style=\"background-color:Tomato\">Bad luck! There was no prize in the box!</h1><h1 style=\"background-color:Tomato\">Remember, you need to keep going until you have 20 prizes!</h1><img id=\"box\" src=\"img/sad/purpleopenboxsadthumb.png\"></img></div>","key_press":null,"trial_type":"html-keyboard-response","trial_index":31,"time_elapsed":276906,"internal_node_id":"0.0-19.3-1.3"},{"rt":712.7400001045316,"stimulus":"<p>Choose a box,</p>","button_pressed":3,"trial_type":"html-button-response","trial_index":32,"time_elapsed":277620,"internal_node_id":"0.0-19.4-0.4"},{"rate":0.6688132421835374,"trial_type":"html-keyboard-response","trial_index":33,"time_elapsed":277620,"internal_node_id":"0.0-19.4-1.4"},{"rt":null,"stimulus":"<div style=\"background-color:#6dce98\"><h1 style=\"background-color:MediumSeaGreen\" >You won a prize! Well done!</h1><div style=\"background-color:#6dce98\"><h1 style=\"background-color:MediumSeaGreen\" >Only 17 left to go!</h1><img id=\"box\" src=\"img/prizes/flowers.png\"></img><img id=\"box\" src=\"img/empty/redopenbox.png\"></img></div>","key_press":null,"trial_type":"html-keyboard-response","trial_index":33,"time_elapsed":279121,"internal_node_id":"0.0-19.4-1.4"},{"rt":753.7649997975677,"stimulus":"<p>Choose a box,</p>","button_pressed":1,"trial_type":"html-button-response","trial_index":34,"time_elapsed":279876,"internal_node_id":"0.0-19.5-0.5"},{"rate":0.7986788758604029,"trial_type":"html-keyboard-response","trial_index":35,"time_elapsed":279876,"internal_node_id":"0.0-19.5-1.5"},{"rt":null,"stimulus":"<div style=\"background-color:#ff7157\"><h1 style=\"background-color:Tomato\">Bad luck! There was no prize in the box!</h1><h1 style=\"background-color:Tomato\">Remember, you need to keep going until you have 20 prizes!</h1><img id=\"box\" src=\"img/sad/greenopenboxsadthumb.png\"></img></div>","key_press":null,"trial_type":"html-keyboard-response","trial_index":35,"time_elapsed":281378,"internal_node_id":"0.0-19.5-1.5"},{"rt":465.3050000779331,"stimulus":"<p>Choose a box,</p>","button_pressed":3,"trial_type":"html-button-response","trial_index":36,"time_elapsed":281844,"internal_node_id":"0.0-19.6-0.6"},{"rate":0.6688132421835374,"trial_type":"html-keyboard-response","trial_index":37,"time_elapsed":281844,"internal_node_id":"0.0-19.6-1.6"},{"rt":null,"stimulus":"<div style=\"background-color:#ff7157\"><h1 style=\"background-color:Tomato\">Bad luck! There was no prize in the box!</h1><h1 style=\"background-color:Tomato\">Remember, you need to keep going until you have 20 prizes!</h1><img id=\"box\" src=\"img/sad/redopenboxsadthumb.png\"></img></div>","key_press":null,"trial_type":"html-keyboard-response","trial_index":37,"time_elapsed":283345,"internal_node_id":"0.0-19.6-1.6"},{"rt":746.0050000809133,"stimulus":"<p>Choose a box,</p>","button_pressed":2,"trial_type":"html-button-response","trial_index":38,"time_elapsed":284092,"internal_node_id":"0.0-19.7-0.7"},{"rate":0.21422822375921255,"trial_type":"html-keyboard-response","trial_index":39,"time_elapsed":284092,"internal_node_id":"0.0-19.7-1.7"},{"rt":null,"stimulus":"<div style=\"background-color:#ff7157\"><h1 style=\"background-color:Tomato\">Bad luck! There was no prize in the box!</h1><h1 style=\"background-color:Tomato\">Remember, you need to keep going until you have 20 prizes!</h1><img id=\"box\" src=\"img/sad/purpleopenboxsadthumb.png\"></img></div>","key_press":null,"trial_type":"html-keyboard-response","trial_index":39,"time_elapsed":285594,"internal_node_id":"0.0-19.7-1.7"},{"rt":585.3999999817461,"stimulus":"<p>Choose a box,</p>","button_pressed":0,"trial_type":"html-button-response","trial_index":40,"time_elapsed":286180,"internal_node_id":"0.0-19.8-0.8"},{"rate":0.3644786330503746,"trial_type":"html-keyboard-response","trial_index":41,"time_elapsed":286180,"internal_node_id":"0.0-19.8-1.8"},{"rt":null,"stimulus":"<div style=\"background-color:#ff7157\"><h1 style=\"background-color:Tomato\">Bad luck! There was no prize in the box!</h1><h1 style=\"background-color:Tomato\">Remember, you need to keep going until you have 20 prizes!</h1><img id=\"box\" src=\"img/sad/blueopenboxsadthumb.png\"></img></div>","key_press":null,"trial_type":"html-keyboard-response","trial_index":41,"time_elapsed":287683,"internal_node_id":"0.0-19.8-1.8"},{"rt":544.5999999064952,"stimulus":"<p>Choose a box,</p>","button_pressed":1,"trial_type":"html-button-response","trial_index":42,"time_elapsed":288228,"internal_node_id":"0.0-19.9-0.9"},{"rate":0.7986788758604029,"trial_type":"html-keyboard-response","trial_index":43,"time_elapsed":288228,"internal_node_id":"0.0-19.9-1.9"},{"rt":null,"stimulus":"<div style=\"background-color:#6dce98\"><h1 style=\"background-color:MediumSeaGreen\" >You won a prize! Well done!</h1><div style=\"background-color:#6dce98\"><h1 style=\"background-color:MediumSeaGreen\" >Only 16 left to go!</h1><img id=\"box\" src=\"img/prizes/ring.png\"></img><img id=\"box\" src=\"img/empty/greenopenbox.png\"></img></div>","key_press":null,"trial_type":"html-keyboard-response","trial_index":43,"time_elapsed":289730,"internal_node_id":"0.0-19.9-1.9"},{"rt":705.3199999500066,"stimulus":"<p>Choose a box,</p>","button_pressed":1,"trial_type":"html-button-response","trial_index":44,"time_elapsed":290436,"internal_node_id":"0.0-19.10-0.10"},{"rate":0.7986788758604029,"trial_type":"html-keyboard-response","trial_index":45,"time_elapsed":290436,"internal_node_id":"0.0-19.10-1.10"},{"rt":null,"stimulus":"<div style=\"background-color:#6dce98\"><h1 style=\"background-color:MediumSeaGreen\" >You won a prize! Well done!</h1><div style=\"background-color:#6dce98\"><h1 style=\"background-color:MediumSeaGreen\" >Only 15 left to go!</h1><img id=\"box\" src=\"img/prizes/choc.png\"></img><img id=\"box\" src=\"img/empty/greenopenbox.png\"></img></div>","key_press":null,"trial_type":"html-keyboard-response","trial_index":45,"time_elapsed":291938,"internal_node_id":"0.0-19.10-1.10"},{"rt":433.14999993890524,"stimulus":"<p>Choose a box,</p>","button_pressed":1,"trial_type":"html-button-response","trial_index":46,"time_elapsed":292372,"internal_node_id":"0.0-19.11-0.11"},{"rate":0.7986788758604029,"trial_type":"html-keyboard-response","trial_index":47,"time_elapsed":292372,"internal_node_id":"0.0-19.11-1.11"},{"rt":null,"stimulus":"<div style=\"background-color:#6dce98\"><h1 style=\"background-color:MediumSeaGreen\" >You won a prize! Well done!</h1><div style=\"background-color:#6dce98\"><h1 style=\"background-color:MediumSeaGreen\" >Only 14 left to go!</h1><img id=\"box\" src=\"img/prizes/bear.png\"></img><img id=\"box\" src=\"img/empty/greenopenbox.png\"></img></div>","key_press":null,"trial_type":"html-keyboard-response","trial_index":47,"time_elapsed":293874,"internal_node_id":"0.0-19.11-1.11"},{"rt":473.340000025928,"stimulus":"<p>Choose a box,</p>","button_pressed":1,"trial_type":"html-button-response","trial_index":48,"time_elapsed":294348,"internal_node_id":"0.0-19.12-0.12"},{"rate":0.7986788758604029,"trial_type":"html-keyboard-response","trial_index":49,"time_elapsed":294348,"internal_node_id":"0.0-19.12-1.12"},{"rt":null,"stimulus":"<div style=\"background-color:#6dce98\"><h1 style=\"background-color:MediumSeaGreen\" >You won a prize! Well done!</h1><div style=\"background-color:#6dce98\"><h1 style=\"background-color:MediumSeaGreen\" >Only 13 left to go!</h1><img id=\"box\" src=\"img/prizes/choc.png\"></img><img id=\"box\" src=\"img/empty/greenopenbox.png\"></img></div>","key_press":null,"trial_type":"html-keyboard-response","trial_index":49,"time_elapsed":295849,"internal_node_id":"0.0-19.12-1.12"},{"rt":417.24000009708107,"stimulus":"<p>Choose a box,</p>","button_pressed":1,"trial_type":"html-button-response","trial_index":50,"time_elapsed":296268,"internal_node_id":"0.0-19.13-0.13"},{"rate":0.7986788758604029,"trial_type":"html-keyboard-response","trial_index":51,"time_elapsed":296268,"internal_node_id":"0.0-19.13-1.13"},{"rt":null,"stimulus":"<div style=\"background-color:#ff7157\"><h1 style=\"background-color:Tomato\">Bad luck! There was no prize in the box!</h1><h1 style=\"background-color:Tomato\">Remember, you need to keep going until you have 20 prizes!</h1><img id=\"box\" src=\"img/sad/greenopenboxsadthumb.png\"></img></div>","key_press":null,"trial_type":"html-keyboard-response","trial_index":51,"time_elapsed":297770,"internal_node_id":"0.0-19.13-1.13"},{"rt":440.99500006996095,"stimulus":"<p>Choose a box,</p>","button_pressed":2,"trial_type":"html-button-response","trial_index":52,"time_elapsed":298212,"internal_node_id":"0.0-19.14-0.14"},{"rate":0.21422822375921255,"trial_type":"html-keyboard-response","trial_index":53,"time_elapsed":298212,"internal_node_id":"0.0-19.14-1.14"},{"rt":null,"stimulus":"<div style=\"background-color:#ff7157\"><h1 style=\"background-color:Tomato\">Bad luck! There was no prize in the box!</h1><h1 style=\"background-color:Tomato\">Remember, you need to keep going until you have 20 prizes!</h1><img id=\"box\" src=\"img/sad/purpleopenboxsadthumb.png\"></img></div>","key_press":null,"trial_type":"html-keyboard-response","trial_index":53,"time_elapsed":299713,"internal_node_id":"0.0-19.14-1.14"},{"rt":353.899999987334,"stimulus":"<p>Choose a box,</p>","button_pressed":3,"trial_type":"html-button-response","trial_index":54,"time_elapsed":300068,"internal_node_id":"0.0-19.15-0.15"},{"rate":0.6688132421835374,"trial_type":"html-keyboard-response","trial_index":55,"time_elapsed":300068,"internal_node_id":"0.0-19.15-1.15"},{"rt":null,"stimulus":"<div style=\"background-color:#6dce98\"><h1 style=\"background-color:MediumSeaGreen\" >You won a prize! Well done!</h1><div style=\"background-color:#6dce98\"><h1 style=\"background-color:MediumSeaGreen\" >Only 12 left to go!</h1><img id=\"box\" src=\"img/prizes/ring.png\"></img><img id=\"box\" src=\"img/empty/redopenbox.png\"></img></div>","key_press":null,"trial_type":"html-keyboard-response","trial_index":55,"time_elapsed":301570,"internal_node_id":"0.0-19.15-1.15"},{"rt":416.72999993897974,"stimulus":"<p>Choose a box,</p>","button_pressed":3,"trial_type":"html-button-response","trial_index":56,"time_elapsed":301988,"internal_node_id":"0.0-19.16-0.16"},{"rate":0.6688132421835374,"trial_type":"html-keyboard-response","trial_index":57,"time_elapsed":301988,"internal_node_id":"0.0-19.16-1.16"},{"rt":null,"stimulus":"<div style=\"background-color:#6dce98\"><h1 style=\"background-color:MediumSeaGreen\" >You won a prize! Well done!</h1><div style=\"background-color:#6dce98\"><h1 style=\"background-color:MediumSeaGreen\" >Only 11 left to go!</h1><img id=\"box\" src=\"img/prizes/lolipop.png\"></img><img id=\"box\" src=\"img/empty/redopenbox.png\"></img></div>","key_press":null,"trial_type":"html-keyboard-response","trial_index":57,"time_elapsed":303489,"internal_node_id":"0.0-19.16-1.16"},{"rt":385.99999994039536,"stimulus":"<p>Choose a box,</p>","button_pressed":3,"trial_type":"html-button-response","trial_index":58,"time_elapsed":303876,"internal_node_id":"0.0-19.17-0.17"},{"rate":0.6688132421835374,"trial_type":"html-keyboard-response","trial_index":59,"time_elapsed":303876,"internal_node_id":"0.0-19.17-1.17"},{"rt":null,"stimulus":"<div style=\"background-color:#6dce98\"><h1 style=\"background-color:MediumSeaGreen\" >You won a prize! Well done!</h1><div style=\"background-color:#6dce98\"><h1 style=\"background-color:MediumSeaGreen\" >Only 10 left to go!</h1><img id=\"box\" src=\"img/prizes/yoyo.png\"></img><img id=\"box\" src=\"img/empty/redopenbox.png\"></img></div>","key_press":null,"trial_type":"html-keyboard-response","trial_index":59,"time_elapsed":305377,"internal_node_id":"0.0-19.17-1.17"},{"rt":577.87000015378,"stimulus":"<p>Choose a box,</p>","button_pressed":1,"trial_type":"html-button-response","trial_index":60,"time_elapsed":305956,"internal_node_id":"0.0-19.18-0.18"},{"rate":0.7986788758604029,"trial_type":"html-keyboard-response","trial_index":61,"time_elapsed":305956,"internal_node_id":"0.0-19.18-1.18"},{"rt":null,"stimulus":"<div style=\"background-color:#6dce98\"><h1 style=\"background-color:MediumSeaGreen\" >You won a prize! Well done!</h1><div style=\"background-color:#6dce98\"><h1 style=\"background-color:MediumSeaGreen\" >Only 9 left to go!</h1><img id=\"box\" src=\"img/prizes/bear.png\"></img><img id=\"box\" src=\"img/empty/greenopenbox.png\"></img></div>","key_press":null,"trial_type":"html-keyboard-response","trial_index":61,"time_elapsed":307457,"internal_node_id":"0.0-19.18-1.18"},{"rt":665.7650000415742,"stimulus":"<p>Choose a box,</p>","button_pressed":3,"trial_type":"html-button-response","trial_index":62,"time_elapsed":308124,"internal_node_id":"0.0-19.19-0.19"},{"rate":0.6688132421835374,"trial_type":"html-keyboard-response","trial_index":63,"time_elapsed":308124,"internal_node_id":"0.0-19.19-1.19"},{"rt":null,"stimulus":"<div style=\"background-color:#6dce98\"><h1 style=\"background-color:MediumSeaGreen\" >You won a prize! Well done!</h1><div style=\"background-color:#6dce98\"><h1 style=\"background-color:MediumSeaGreen\" >Only 8 left to go!</h1><img id=\"box\" src=\"img/prizes/coins.png\"></img><img id=\"box\" src=\"img/empty/redopenbox.png\"></img></div>","key_press":null,"trial_type":"html-keyboard-response","trial_index":63,"time_elapsed":309624,"internal_node_id":"0.0-19.19-1.19"},{"rt":922.8600000496954,"stimulus":"<p>Choose a box,</p>","button_pressed":0,"trial_type":"html-button-response","trial_index":64,"time_elapsed":310548,"internal_node_id":"0.0-19.20-0.20"},{"rate":0.3644786330503746,"trial_type":"html-keyboard-response","trial_index":65,"time_elapsed":310548,"internal_node_id":"0.0-19.20-1.20"},{"rt":null,"stimulus":"<div style=\"background-color:#ff7157\"><h1 style=\"background-color:Tomato\">Bad luck! There was no prize in the box!</h1><h1 style=\"background-color:Tomato\">Remember, you need to keep going until you have 20 prizes!</h1><img id=\"box\" src=\"img/sad/blueopenboxsadthumb.png\"></img></div>","key_press":null,"trial_type":"html-keyboard-response","trial_index":65,"time_elapsed":312050,"internal_node_id":"0.0-19.20-1.20"},{"rt":384.74000012502074,"stimulus":"<p>Choose a box,</p>","button_pressed":1,"trial_type":"html-button-response","trial_index":66,"time_elapsed":312436,"internal_node_id":"0.0-19.21-0.21"},{"rate":0.7986788758604029,"trial_type":"html-keyboard-response","trial_index":67,"time_elapsed":312436,"internal_node_id":"0.0-19.21-1.21"},{"rt":null,"stimulus":"<div style=\"background-color:#6dce98\"><h1 style=\"background-color:MediumSeaGreen\" >You won a prize! Well done!</h1><div style=\"background-color:#6dce98\"><h1 style=\"background-color:MediumSeaGreen\" >Only 7 left to go!</h1><img id=\"box\" src=\"img/prizes/beachball.png\"></img><img id=\"box\" src=\"img/empty/greenopenbox.png\"></img></div>","key_press":null,"trial_type":"html-keyboard-response","trial_index":67,"time_elapsed":313937,"internal_node_id":"0.0-19.21-1.21"},{"rt":441.7200000025332,"stimulus":"<p>Choose a box,</p>","button_pressed":3,"trial_type":"html-button-response","trial_index":68,"time_elapsed":314380,"internal_node_id":"0.0-19.22-0.22"},{"rate":0.6688132421835374,"trial_type":"html-keyboard-response","trial_index":69,"time_elapsed":314380,"internal_node_id":"0.0-19.22-1.22"},{"rt":null,"stimulus":"<div style=\"background-color:#6dce98\"><h1 style=\"background-color:MediumSeaGreen\" >You won a prize! Well done!</h1><div style=\"background-color:#6dce98\"><h1 style=\"background-color:MediumSeaGreen\" >Only 6 left to go!</h1><img id=\"box\" src=\"img/prizes/beachball.png\"></img><img id=\"box\" src=\"img/empty/redopenbox.png\"></img></div>","key_press":null,"trial_type":"html-keyboard-response","trial_index":69,"time_elapsed":315881,"internal_node_id":"0.0-19.22-1.22"},{"rt":402.4249999783933,"stimulus":"<p>Choose a box,</p>","button_pressed":1,"trial_type":"html-button-response","trial_index":70,"time_elapsed":316284,"internal_node_id":"0.0-19.23-0.23"},{"rate":0.7986788758604029,"trial_type":"html-keyboard-response","trial_index":71,"time_elapsed":316285,"internal_node_id":"0.0-19.23-1.23"},{"rt":null,"stimulus":"<div style=\"background-color:#ff7157\"><h1 style=\"background-color:Tomato\">Bad luck! There was no prize in the box!</h1><h1 style=\"background-color:Tomato\">Remember, you need to keep going until you have 20 prizes!</h1><img id=\"box\" src=\"img/sad/greenopenboxsadthumb.png\"></img></div>","key_press":null,"trial_type":"html-keyboard-response","trial_index":71,"time_elapsed":317786,"internal_node_id":"0.0-19.23-1.23"},{"rt":441.1199998576194,"stimulus":"<p>Choose a box,</p>","button_pressed":2,"trial_type":"html-button-response","trial_index":72,"time_elapsed":318228,"internal_node_id":"0.0-19.24-0.24"},{"rate":0.21422822375921255,"trial_type":"html-keyboard-response","trial_index":73,"time_elapsed":318228,"internal_node_id":"0.0-19.24-1.24"},{"rt":null,"stimulus":"<div style=\"background-color:#ff7157\"><h1 style=\"background-color:Tomato\">Bad luck! There was no prize in the box!</h1><h1 style=\"background-color:Tomato\">Remember, you need to keep going until you have 20 prizes!</h1><img id=\"box\" src=\"img/sad/purpleopenboxsadthumb.png\"></img></div>","key_press":null,"trial_type":"html-keyboard-response","trial_index":73,"time_elapsed":319729,"internal_node_id":"0.0-19.24-1.24"},{"rt":353.34999999031425,"stimulus":"<p>Choose a box,</p>","button_pressed":3,"trial_type":"html-button-response","trial_index":74,"time_elapsed":320084,"internal_node_id":"0.0-19.25-0.25"},{"rate":0.6688132421835374,"trial_type":"html-keyboard-response","trial_index":75,"time_elapsed":320084,"internal_node_id":"0.0-19.25-1.25"},{"rt":null,"stimulus":"<div style=\"background-color:#ff7157\"><h1 style=\"background-color:Tomato\">Bad luck! There was no prize in the box!</h1><h1 style=\"background-color:Tomato\">Remember, you need to keep going until you have 20 prizes!</h1><img id=\"box\" src=\"img/sad/redopenboxsadthumb.png\"></img></div>","key_press":null,"trial_type":"html-keyboard-response","trial_index":75,"time_elapsed":321584,"internal_node_id":"0.0-19.25-1.25"},{"rt":386.3149997778237,"stimulus":"<p>Choose a box,</p>","button_pressed":0,"trial_type":"html-button-response","trial_index":76,"time_elapsed":321972,"internal_node_id":"0.0-19.26-0.26"},{"rate":0.3644786330503746,"trial_type":"html-keyboard-response","trial_index":77,"time_elapsed":321972,"internal_node_id":"0.0-19.26-1.26"},{"rt":null,"stimulus":"<div style=\"background-color:#ff7157\"><h1 style=\"background-color:Tomato\">Bad luck! There was no prize in the box!</h1><h1 style=\"background-color:Tomato\">Remember, you need to keep going until you have 20 prizes!</h1><img id=\"box\" src=\"img/sad/blueopenboxsadthumb.png\"></img></div>","key_press":null,"trial_type":"html-keyboard-response","trial_index":77,"time_elapsed":323473,"internal_node_id":"0.0-19.26-1.26"},{"rt":425.3899999894202,"stimulus":"<p>Choose a box,</p>","button_pressed":1,"trial_type":"html-button-response","trial_index":78,"time_elapsed":323900,"internal_node_id":"0.0-19.27-0.27"},{"rate":0.7986788758604029,"trial_type":"html-keyboard-response","trial_index":79,"time_elapsed":323900,"internal_node_id":"0.0-19.27-1.27"},{"rt":null,"stimulus":"<div style=\"background-color:#6dce98\"><h1 style=\"background-color:MediumSeaGreen\" >You won a prize! Well done!</h1><div style=\"background-color:#6dce98\"><h1 style=\"background-color:MediumSeaGreen\" >Only 5 left to go!</h1><img id=\"box\" src=\"img/prizes/flowers.png\"></img><img id=\"box\" src=\"img/empty/greenopenbox.png\"></img></div>","key_press":null,"trial_type":"html-keyboard-response","trial_index":79,"time_elapsed":325401,"internal_node_id":"0.0-19.27-1.27"},{"rt":441.8049999512732,"stimulus":"<p>Choose a box,</p>","button_pressed":1,"trial_type":"html-button-response","trial_index":80,"time_elapsed":325844,"internal_node_id":"0.0-19.28-0.28"},{"rate":0.7986788758604029,"trial_type":"html-keyboard-response","trial_index":81,"time_elapsed":325844,"internal_node_id":"0.0-19.28-1.28"},{"rt":null,"stimulus":"<div style=\"background-color:#6dce98\"><h1 style=\"background-color:MediumSeaGreen\" >You won a prize! Well done!</h1><div style=\"background-color:#6dce98\"><h1 style=\"background-color:MediumSeaGreen\" >Only 4 left to go!</h1><img id=\"box\" src=\"img/prizes/bear.png\"></img><img id=\"box\" src=\"img/empty/greenopenbox.png\"></img></div>","key_press":null,"trial_type":"html-keyboard-response","trial_index":81,"time_elapsed":327345,"internal_node_id":"0.0-19.28-1.28"},{"rt":401.97500004433095,"stimulus":"<p>Choose a box,</p>","button_pressed":1,"trial_type":"html-button-response","trial_index":82,"time_elapsed":327748,"internal_node_id":"0.0-19.29-0.29"},{"rate":0.7986788758604029,"trial_type":"html-keyboard-response","trial_index":83,"time_elapsed":327748,"internal_node_id":"0.0-19.29-1.29"},{"rt":null,"stimulus":"<div style=\"background-color:#6dce98\"><h1 style=\"background-color:MediumSeaGreen\" >You won a prize! Well done!</h1><div style=\"background-color:#6dce98\"><h1 style=\"background-color:MediumSeaGreen\" >Only 3 left to go!</h1><img id=\"box\" src=\"img/prizes/yoyo.png\"></img><img id=\"box\" src=\"img/empty/greenopenbox.png\"></img></div>","key_press":null,"trial_type":"html-keyboard-response","trial_index":83,"time_elapsed":329250,"internal_node_id":"0.0-19.29-1.29"},{"rt":393.1899999734014,"stimulus":"<p>Choose a box,</p>","button_pressed":2,"trial_type":"html-button-response","trial_index":84,"time_elapsed":329644,"internal_node_id":"0.0-19.30-0.30"},{"rate":0.21422822375921255,"trial_type":"html-keyboard-response","trial_index":85,"time_elapsed":329644,"internal_node_id":"0.0-19.30-1.30"},{"rt":null,"stimulus":"<div style=\"background-color:#ff7157\"><h1 style=\"background-color:Tomato\">Bad luck! There was no prize in the box!</h1><h1 style=\"background-color:Tomato\">Remember, you need to keep going until you have 20 prizes!</h1><img id=\"box\" src=\"img/sad/purpleopenboxsadthumb.png\"></img></div>","key_press":null,"trial_type":"html-keyboard-response","trial_index":85,"time_elapsed":331145,"internal_node_id":"0.0-19.30-1.30"},{"rt":369.7999999858439,"stimulus":"<p>Choose a box,</p>","button_pressed":1,"trial_type":"html-button-response","trial_index":86,"time_elapsed":331516,"internal_node_id":"0.0-19.31-0.31"},{"rate":0.7986788758604029,"trial_type":"html-keyboard-response","trial_index":87,"time_elapsed":331516,"internal_node_id":"0.0-19.31-1.31"},{"rt":null,"stimulus":"<div style=\"background-color:#6dce98\"><h1 style=\"background-color:MediumSeaGreen\" >You won a prize! Well done!</h1><div style=\"background-color:#6dce98\"><h1 style=\"background-color:MediumSeaGreen\" >Only 2 left to go!</h1><img id=\"box\" src=\"img/prizes/duck.png\"></img><img id=\"box\" src=\"img/empty/greenopenbox.png\"></img></div>","key_press":null,"trial_type":"html-keyboard-response","trial_index":87,"time_elapsed":333017,"internal_node_id":"0.0-19.31-1.31"},{"rt":521.8950000125915,"stimulus":"<p>Choose a box,</p>","button_pressed":1,"trial_type":"html-button-response","trial_index":88,"time_elapsed":333540,"internal_node_id":"0.0-19.32-0.32"},{"rate":0.7986788758604029,"trial_type":"html-keyboard-response","trial_index":89,"time_elapsed":333540,"internal_node_id":"0.0-19.32-1.32"},{"rt":null,"stimulus":"<div style=\"background-color:#6dce98\"><h1 style=\"background-color:MediumSeaGreen\" >You won a prize! Well done!</h1><div style=\"background-color:#6dce98\"><h1 style=\"background-color:MediumSeaGreen\" >Only 1 left to go!</h1><img id=\"box\" src=\"img/prizes/bear.png\"></img><img id=\"box\" src=\"img/empty/greenopenbox.png\"></img></div>","key_press":null,"trial_type":"html-keyboard-response","trial_index":89,"time_elapsed":335042,"internal_node_id":"0.0-19.32-1.32"},{"rt":584.9249998573214,"stimulus":"<p>Choose a box,</p>","button_pressed":1,"trial_type":"html-button-response","trial_index":90,"time_elapsed":335628,"internal_node_id":"0.0-19.33-0.33"},{"rate":0.7986788758604029,"trial_type":"html-keyboard-response","trial_index":91,"time_elapsed":335628,"internal_node_id":"0.0-19.33-1.33"},{"rt":null,"stimulus":"<div style=\"background-color:#ff7157\"><h1 style=\"background-color:Tomato\">Bad luck! There was no prize in the box!</h1><h1 style=\"background-color:Tomato\">Remember, you need to keep going until you have 20 prizes!</h1><img id=\"box\" src=\"img/sad/greenopenboxsadthumb.png\"></img></div>","key_press":null,"trial_type":"html-keyboard-response","trial_index":91,"time_elapsed":337129,"internal_node_id":"0.0-19.33-1.33"},{"rt":353.85000007227063,"stimulus":"<p>Choose a box,</p>","button_pressed":3,"trial_type":"html-button-response","trial_index":92,"time_elapsed":337484,"internal_node_id":"0.0-19.34-0.34"},{"rate":0.6688132421835374,"trial_type":"html-keyboard-response","trial_index":93,"time_elapsed":337484,"internal_node_id":"0.0-19.34-1.34"},{"rt":null,"stimulus":"<div style=\"background-color:#6dce98\"><h1 style=\"background-color:MediumSeaGreen\" >You won a prize! Well done!</h1><div style=\"background-color:#6dce98\"><h1 style=\"background-color:MediumSeaGreen\" >Only 0 left to go!</h1><img id=\"box\" src=\"img/prizes/coins.png\"></img><img id=\"box\" src=\"img/empty/redopenbox.png\"></img></div>","key_press":null,"trial_type":"html-keyboard-response","trial_index":93,"time_elapsed":338985,"internal_node_id":"0.0-19.34-1.34"},{"rt":82390.05500008352,"responses":"{\"Q0\":\"easy to do - the first part was a little depressing - just having to think of the past 2 weeks.\",\"Q1\":\"going back to ones that had previously awarded prizes\"}","trial_type":"survey-text","trial_index":94,"time_elapsed":421380,"internal_node_id":"0.0-20.0"}]