[{"view_history":"[{\"page_index\":0,\"viewing_time\":19560.74499990791},{\"page_index\":1,\"viewing_time\":14451.670000096783},{\"page_index\":2,\"viewing_time\":17155.989999882877},{\"page_index\":3,\"viewing_time\":15189.99999994412},{\"page_index\":4,\"viewing_time\":4738.0000001285225},{\"page_index\":5,\"viewing_time\":6792.039999971166}]","rt":77889.26499988884,"trial_type":"instructions","trial_index":0,"time_elapsed":77894,"internal_node_id":"0.0-0.0"},{"rt":6169.950000010431,"responses":"{\"Q0\":\"Yes\",\"Q1\":\"Yes\",\"Q2\":\"Yes\"}","question_order":"[0,1,2]","trial_type":"survey-multi-choice","trial_index":1,"time_elapsed":84066,"internal_node_id":"0.0-1.0-0.0"},{"rt":11547.349999891594,"responses":"{\"Q0\":\"Yes\",\"Q1\":\"Yes\",\"Q2\":\"Yes\"}","question_order":"[0,1,2]","trial_type":"survey-multi-choice","trial_index":2,"time_elapsed":95617,"internal_node_id":"0.0-2.0-0.0"},{"rt":4592.304999940097,"responses":"{\"Q0\":\"5dcef784e6e6d8000cc6095e\"}","trial_type":"survey-text","trial_index":3,"time_elapsed":100215,"internal_node_id":"0.0-3.0"},{"rt":3598.245000001043,"responses":"{\"Q0\":\"Female\",\"Q1\":\"18-25\"}","question_order":"[0,1]","trial_type":"survey-multi-choice","trial_index":4,"time_elapsed":103816,"internal_node_id":"0.0-4.0"},{"rt":3968.5750000644475,"responses":"{\"Q0\":\"\"}","trial_type":"survey-text","trial_index":5,"time_elapsed":107789,"internal_node_id":"0.0-5.0"},{"view_history":"[{\"page_index\":0,\"viewing_time\":3721.0999999661}]","rt":3721.4299999177456,"trial_type":"instructions","trial_index":6,"time_elapsed":111511,"internal_node_id":"0.0-6.0"},{"rt":12259.254999924451,"responses":"{\"Interested\":2,\"Distressed\":2,\"Excited\":1,\"Upset\":2}","question_order":"[0,1,2,3]","trial_type":"survey-likert","trial_index":7,"time_elapsed":123772,"internal_node_id":"0.0-7.0"},{"rt":10096.909999847412,"responses":"{\"Strong\":2,\"Guilty\":0,\"Scared\":3,\"Hostile\":1}","question_order":"[0,1,2,3]","trial_type":"survey-likert","trial_index":8,"time_elapsed":133874,"internal_node_id":"0.0-8.0"},{"rt":8619.309999980032,"responses":"{\"Enthusiastic\":1,\"Proud\":3,\"Irritable\":2,\"Alert\":1}","question_order":"[0,1,2,3]","trial_type":"survey-likert","trial_index":9,"time_elapsed":142498,"internal_node_id":"0.0-9.0"},{"rt":11363.379999995232,"responses":"{\"Ashamed\":0,\"Inspired\":2,\"Nervous\":3,\"Determined\":2}","question_order":"[0,1,2,3]","trial_type":"survey-likert","trial_index":10,"time_elapsed":153866,"internal_node_id":"0.0-10.0"},{"rt":8401.899999938905,"responses":"{\"Attentive\":1,\"Jittery\":2,\"Active\":1,\"Afraid\":2}","question_order":"[0,1,2,3]","trial_type":"survey-likert","trial_index":11,"time_elapsed":162272,"internal_node_id":"0.0-11.0"},{"rt":20035.284999990836,"responses":"{\"Q0\":1,\"Q1\":2,\"Q2\":0,\"Q3\":1}","question_order":"[0,1,2,3]","trial_type":"survey-likert","trial_index":12,"time_elapsed":182311,"internal_node_id":"0.0-12.0"},{"rt":21063.929999945685,"responses":"{\"Q0\":3,\"Q1\":1,\"Q2\":1,\"Q3\":0}","question_order":"[0,1,2,3]","trial_type":"survey-likert","trial_index":13,"time_elapsed":203379,"internal_node_id":"0.0-13.0"},{"rt":15641.844999976456,"responses":"{\"Q0\":1,\"Q1\":1,\"Q2\":2,\"Q3\":1}","question_order":"[0,1,2,3]","trial_type":"survey-likert","trial_index":14,"time_elapsed":219025,"internal_node_id":"0.0-14.0"},{"rt":11125.520000001416,"responses":"{\"Q0\":1,\"Q1\":2,\"Q2\":2}","question_order":"[0,1,2]","trial_type":"survey-likert","trial_index":15,"time_elapsed":230155,"internal_node_id":"0.0-15.0"},{"view_history":"[{\"page_index\":0,\"viewing_time\":4097.169999964535},{\"page_index\":1,\"viewing_time\":6537.775000091642},{\"page_index\":2,\"viewing_time\":10435.989999910817}]","rt":21071.72999996692,"trial_type":"instructions","trial_index":16,"time_elapsed":251242,"internal_node_id":"0.0-16.0"},{"rt":1002.305000089109,"stimulus":"<p>Choose a box,</p>","button_pressed":1,"trial_type":"html-button-response","trial_index":17,"time_elapsed":252246,"internal_node_id":"0.0-17.0-0.0"},{"rate":0.11246309065698072,"trial_type":"html-keyboard-response","trial_index":18,"time_elapsed":252246,"internal_node_id":"0.0-17.0-1.0"},{"rt":null,"stimulus":"<div style=\"background-color:#ff7157\"><h1 style=\"background-color:Tomato\">Bad luck! There was no prize in the box!</h1><h1 style=\"background-color:Tomato\">Remember, you need to keep going until you have 20 prizes!</h1><img id=\"box\" src=\"img/sad/greenopenboxsadthumb.png\"></img></div>","key_press":null,"trial_type":"html-keyboard-response","trial_index":18,"time_elapsed":253752,"internal_node_id":"0.0-17.0-1.0"},{"rt":865.8100001048297,"stimulus":"<p>Choose a box,</p>","button_pressed":2,"trial_type":"html-button-response","trial_index":19,"time_elapsed":254620,"internal_node_id":"0.0-17.0-0.1"},{"rate":0.8110302636631527,"trial_type":"html-keyboard-response","trial_index":20,"time_elapsed":254620,"internal_node_id":"0.0-17.0-1.1"},{"rt":null,"stimulus":"<div style=\"background-color:#6dce98\"><h1 style=\"background-color:MediumSeaGreen\" >You won a prize! Well done!</h1><div style=\"background-color:#6dce98\"><h1 style=\"background-color:MediumSeaGreen\" >Only 19 left to go!</h1><img id=\"box\" src=\"img/prizes/flowers.png\"></img><img id=\"box\" src=\"img/empty/purpleopenbox.png\"></img></div>","key_press":null,"trial_type":"html-keyboard-response","trial_index":20,"time_elapsed":256125,"internal_node_id":"0.0-17.0-1.1"},{"rt":179.14999998174608,"stimulus":"<p>Choose a box,</p>","button_pressed":2,"trial_type":"html-button-response","trial_index":21,"time_elapsed":256306,"internal_node_id":"0.0-17.0-0.2"},{"rate":0.8110302636631527,"trial_type":"html-keyboard-response","trial_index":22,"time_elapsed":256306,"internal_node_id":"0.0-17.0-1.2"},{"rt":null,"stimulus":"<div style=\"background-color:#6dce98\"><h1 style=\"background-color:MediumSeaGreen\" >You won a prize! Well done!</h1><div style=\"background-color:#6dce98\"><h1 style=\"background-color:MediumSeaGreen\" >Only 18 left to go!</h1><img id=\"box\" src=\"img/prizes/duck.png\"></img><img id=\"box\" src=\"img/empty/purpleopenbox.png\"></img></div>","key_press":null,"trial_type":"html-keyboard-response","trial_index":22,"time_elapsed":257808,"internal_node_id":"0.0-17.0-1.2"},{"view_history":"[{\"page_index\":0,\"viewing_time\":1518.7800000421703}]","rt":1519.1450000274926,"trial_type":"instructions","trial_index":23,"time_elapsed":259328,"internal_node_id":"0.0-18.0"},{"rt":2434.510000050068,"stimulus":"<p>Choose a box,</p>","button_pressed":2,"trial_type":"html-button-response","trial_index":24,"time_elapsed":261764,"internal_node_id":"0.0-19.0-0.0"},{"rate":0.028976176832610195,"trial_type":"html-keyboard-response","trial_index":25,"time_elapsed":261764,"internal_node_id":"0.0-19.0-1.0"},{"rt":null,"stimulus":"<div style=\"background-color:#ff7157\"><h1 style=\"background-color:Tomato\">Bad luck! There was no prize in the box!</h1><h1 style=\"background-color:Tomato\">Remember, you need to keep going until you have 20 prizes!</h1><img id=\"box\" src=\"img/sad/purpleopenboxsadthumb.png\"></img></div>","key_press":null,"trial_type":"html-keyboard-response","trial_index":25,"time_elapsed":263265,"internal_node_id":"0.0-19.0-1.0"},{"rt":648.8550000358373,"stimulus":"<p>Choose a box,</p>","button_pressed":1,"trial_type":"html-button-response","trial_index":26,"time_elapsed":263916,"internal_node_id":"0.0-19.1-0.1"},{"rate":0.7858336885722421,"trial_type":"html-keyboard-response","trial_index":27,"time_elapsed":263916,"internal_node_id":"0.0-19.1-1.1"},{"rt":null,"stimulus":"<div style=\"background-color:#ff7157\"><h1 style=\"background-color:Tomato\">Bad luck! There was no prize in the box!</h1><h1 style=\"background-color:Tomato\">Remember, you need to keep going until you have 20 prizes!</h1><img id=\"box\" src=\"img/sad/greenopenboxsadthumb.png\"></img></div>","key_press":null,"trial_type":"html-keyboard-response","trial_index":27,"time_elapsed":265416,"internal_node_id":"0.0-19.1-1.1"},{"rt":693.8350000418723,"stimulus":"<p>Choose a box,</p>","button_pressed":3,"trial_type":"html-button-response","trial_index":28,"time_elapsed":266112,"internal_node_id":"0.0-19.2-0.2"},{"rate":0.667304135025444,"trial_type":"html-keyboard-response","trial_index":29,"time_elapsed":266112,"internal_node_id":"0.0-19.2-1.2"},{"rt":null,"stimulus":"<div style=\"background-color:#ff7157\"><h1 style=\"background-color:Tomato\">Bad luck! There was no prize in the box!</h1><h1 style=\"background-color:Tomato\">Remember, you need to keep going until you have 20 prizes!</h1><img id=\"box\" src=\"img/sad/redopenboxsadthumb.png\"></img></div>","key_press":null,"trial_type":"html-keyboard-response","trial_index":29,"time_elapsed":267613,"internal_node_id":"0.0-19.2-1.2"},{"rt":475.59499996714294,"stimulus":"<p>Choose a box,</p>","button_pressed":2,"trial_type":"html-button-response","trial_index":30,"time_elapsed":268090,"internal_node_id":"0.0-19.3-0.3"},{"rate":0.028976176832610195,"trial_type":"html-keyboard-response","trial_index":31,"time_elapsed":268090,"internal_node_id":"0.0-19.3-1.3"},{"rt":null,"stimulus":"<div style=\"background-color:#ff7157\"><h1 style=\"background-color:Tomato\">Bad luck! There was no prize in the box!</h1><h1 style=\"background-color:Tomato\">Remember, you need to keep going until you have 20 prizes!</h1><img id=\"box\" src=\"img/sad/purpleopenboxsadthumb.png\"></img></div>","key_press":null,"trial_type":"html-keyboard-response","trial_index":31,"time_elapsed":269591,"internal_node_id":"0.0-19.3-1.3"},{"rt":539.6149998996407,"stimulus":"<p>Choose a box,</p>","button_pressed":0,"trial_type":"html-button-response","trial_index":32,"time_elapsed":270132,"internal_node_id":"0.0-19.4-0.4"},{"rate":0.20493504990756115,"trial_type":"html-keyboard-response","trial_index":33,"time_elapsed":270132,"internal_node_id":"0.0-19.4-1.4"},{"rt":null,"stimulus":"<div style=\"background-color:#ff7157\"><h1 style=\"background-color:Tomato\">Bad luck! There was no prize in the box!</h1><h1 style=\"background-color:Tomato\">Remember, you need to keep going until you have 20 prizes!</h1><img id=\"box\" src=\"img/sad/blueopenboxsadthumb.png\"></img></div>","key_press":null,"trial_type":"html-keyboard-response","trial_index":33,"time_elapsed":271633,"internal_node_id":"0.0-19.4-1.4"},{"rt":417.12499991990626,"stimulus":"<p>Choose a box,</p>","button_pressed":1,"trial_type":"html-button-response","trial_index":34,"time_elapsed":272052,"internal_node_id":"0.0-19.5-0.5"},{"rate":0.7858336885722421,"trial_type":"html-keyboard-response","trial_index":35,"time_elapsed":272052,"internal_node_id":"0.0-19.5-1.5"},{"rt":null,"stimulus":"<div style=\"background-color:#ff7157\"><h1 style=\"background-color:Tomato\">Bad luck! There was no prize in the box!</h1><h1 style=\"background-color:Tomato\">Remember, you need to keep going until you have 20 prizes!</h1><img id=\"box\" src=\"img/sad/greenopenboxsadthumb.png\"></img></div>","key_press":null,"trial_type":"html-keyboard-response","trial_index":35,"time_elapsed":273553,"internal_node_id":"0.0-19.5-1.5"},{"rt":484.8950000014156,"stimulus":"<p>Choose a box,</p>","button_pressed":2,"trial_type":"html-button-response","trial_index":36,"time_elapsed":274039,"internal_node_id":"0.0-19.6-0.6"},{"rate":0.028976176832610195,"trial_type":"html-keyboard-response","trial_index":37,"time_elapsed":274040,"internal_node_id":"0.0-19.6-1.6"},{"rt":null,"stimulus":"<div style=\"background-color:#ff7157\"><h1 style=\"background-color:Tomato\">Bad luck! There was no prize in the box!</h1><h1 style=\"background-color:Tomato\">Remember, you need to keep going until you have 20 prizes!</h1><img id=\"box\" src=\"img/sad/purpleopenboxsadthumb.png\"></img></div>","key_press":null,"trial_type":"html-keyboard-response","trial_index":37,"time_elapsed":275541,"internal_node_id":"0.0-19.6-1.6"},{"rt":484.75500009953976,"stimulus":"<p>Choose a box,</p>","button_pressed":1,"trial_type":"html-button-response","trial_index":38,"time_elapsed":276027,"internal_node_id":"0.0-19.7-0.7"},{"rate":0.7858336885722421,"trial_type":"html-keyboard-response","trial_index":39,"time_elapsed":276027,"internal_node_id":"0.0-19.7-1.7"},{"rt":null,"stimulus":"<div style=\"background-color:#6dce98\"><h1 style=\"background-color:MediumSeaGreen\" >You won a prize! Well done!</h1><div style=\"background-color:#6dce98\"><h1 style=\"background-color:MediumSeaGreen\" >Only 19 left to go!</h1><img id=\"box\" src=\"img/prizes/bear.png\"></img><img id=\"box\" src=\"img/empty/greenopenbox.png\"></img></div>","key_press":null,"trial_type":"html-keyboard-response","trial_index":39,"time_elapsed":277529,"internal_node_id":"0.0-19.7-1.7"},{"rt":597.4600000772625,"stimulus":"<p>Choose a box,</p>","button_pressed":1,"trial_type":"html-button-response","trial_index":40,"time_elapsed":278128,"internal_node_id":"0.0-19.8-0.8"},{"rate":0.7858336885722421,"trial_type":"html-keyboard-response","trial_index":41,"time_elapsed":278128,"internal_node_id":"0.0-19.8-1.8"},{"rt":null,"stimulus":"<div style=\"background-color:#ff7157\"><h1 style=\"background-color:Tomato\">Bad luck! There was no prize in the box!</h1><h1 style=\"background-color:Tomato\">Remember, you need to keep going until you have 20 prizes!</h1><img id=\"box\" src=\"img/sad/greenopenboxsadthumb.png\"></img></div>","key_press":null,"trial_type":"html-keyboard-response","trial_index":41,"time_elapsed":279629,"internal_node_id":"0.0-19.8-1.8"},{"rt":759.3500001821667,"stimulus":"<p>Choose a box,</p>","button_pressed":2,"trial_type":"html-button-response","trial_index":42,"time_elapsed":280390,"internal_node_id":"0.0-19.9-0.9"},{"rate":0.028976176832610195,"trial_type":"html-keyboard-response","trial_index":43,"time_elapsed":280390,"internal_node_id":"0.0-19.9-1.9"},{"rt":null,"stimulus":"<div style=\"background-color:#ff7157\"><h1 style=\"background-color:Tomato\">Bad luck! There was no prize in the box!</h1><h1 style=\"background-color:Tomato\">Remember, you need to keep going until you have 20 prizes!</h1><img id=\"box\" src=\"img/sad/purpleopenboxsadthumb.png\"></img></div>","key_press":null,"trial_type":"html-keyboard-response","trial_index":43,"time_elapsed":281899,"internal_node_id":"0.0-19.9-1.9"},{"rt":719.5449999999255,"stimulus":"<p>Choose a box,</p>","button_pressed":0,"trial_type":"html-button-response","trial_index":44,"time_elapsed":282619,"internal_node_id":"0.0-19.10-0.10"},{"rate":0.20493504990756115,"trial_type":"html-keyboard-response","trial_index":45,"time_elapsed":282620,"internal_node_id":"0.0-19.10-1.10"},{"rt":null,"stimulus":"<div style=\"background-color:#ff7157\"><h1 style=\"background-color:Tomato\">Bad luck! There was no prize in the box!</h1><h1 style=\"background-color:Tomato\">Remember, you need to keep going until you have 20 prizes!</h1><img id=\"box\" src=\"img/sad/blueopenboxsadthumb.png\"></img></div>","key_press":null,"trial_type":"html-keyboard-response","trial_index":45,"time_elapsed":284136,"internal_node_id":"0.0-19.10-1.10"},{"rt":192.51999980770051,"stimulus":"<p>Choose a box,</p>","button_pressed":0,"trial_type":"html-button-response","trial_index":46,"time_elapsed":284330,"internal_node_id":"0.0-19.11-0.11"},{"rate":0.20493504990756115,"trial_type":"html-keyboard-response","trial_index":47,"time_elapsed":284330,"internal_node_id":"0.0-19.11-1.11"},{"rt":null,"stimulus":"<div style=\"background-color:#ff7157\"><h1 style=\"background-color:Tomato\">Bad luck! There was no prize in the box!</h1><h1 style=\"background-color:Tomato\">Remember, you need to keep going until you have 20 prizes!</h1><img id=\"box\" src=\"img/sad/blueopenboxsadthumb.png\"></img></div>","key_press":null,"trial_type":"html-keyboard-response","trial_index":47,"time_elapsed":285831,"internal_node_id":"0.0-19.11-1.11"},{"rt":473.38499990291893,"stimulus":"<p>Choose a box,</p>","button_pressed":3,"trial_type":"html-button-response","trial_index":48,"time_elapsed":286306,"internal_node_id":"0.0-19.12-0.12"},{"rate":0.667304135025444,"trial_type":"html-keyboard-response","trial_index":49,"time_elapsed":286306,"internal_node_id":"0.0-19.12-1.12"},{"rt":null,"stimulus":"<div style=\"background-color:#ff7157\"><h1 style=\"background-color:Tomato\">Bad luck! There was no prize in the box!</h1><h1 style=\"background-color:Tomato\">Remember, you need to keep going until you have 20 prizes!</h1><img id=\"box\" src=\"img/sad/redopenboxsadthumb.png\"></img></div>","key_press":null,"trial_type":"html-keyboard-response","trial_index":49,"time_elapsed":287809,"internal_node_id":"0.0-19.12-1.12"},{"rt":1202.915000030771,"stimulus":"<p>Choose a box,</p>","button_pressed":2,"trial_type":"html-button-response","trial_index":50,"time_elapsed":289014,"internal_node_id":"0.0-19.13-0.13"},{"rate":0.028976176832610195,"trial_type":"html-keyboard-response","trial_index":51,"time_elapsed":289014,"internal_node_id":"0.0-19.13-1.13"},{"rt":null,"stimulus":"<div style=\"background-color:#ff7157\"><h1 style=\"background-color:Tomato\">Bad luck! There was no prize in the box!</h1><h1 style=\"background-color:Tomato\">Remember, you need to keep going until you have 20 prizes!</h1><img id=\"box\" src=\"img/sad/purpleopenboxsadthumb.png\"></img></div>","key_press":null,"trial_type":"html-keyboard-response","trial_index":51,"time_elapsed":290516,"internal_node_id":"0.0-19.13-1.13"},{"rt":640.6199999619275,"stimulus":"<p>Choose a box,</p>","button_pressed":3,"trial_type":"html-button-response","trial_index":52,"time_elapsed":291158,"internal_node_id":"0.0-19.14-0.14"},{"rate":0.667304135025444,"trial_type":"html-keyboard-response","trial_index":53,"time_elapsed":291158,"internal_node_id":"0.0-19.14-1.14"},{"rt":null,"stimulus":"<div style=\"background-color:#6dce98\"><h1 style=\"background-color:MediumSeaGreen\" >You won a prize! Well done!</h1><div style=\"background-color:#6dce98\"><h1 style=\"background-color:MediumSeaGreen\" >Only 18 left to go!</h1><img id=\"box\" src=\"img/prizes/lolipop.png\"></img><img id=\"box\" src=\"img/empty/redopenbox.png\"></img></div>","key_press":null,"trial_type":"html-keyboard-response","trial_index":53,"time_elapsed":292669,"internal_node_id":"0.0-19.14-1.14"},{"rt":801.0950000025332,"stimulus":"<p>Choose a box,</p>","button_pressed":3,"trial_type":"html-button-response","trial_index":54,"time_elapsed":293471,"internal_node_id":"0.0-19.15-0.15"},{"rate":0.667304135025444,"trial_type":"html-keyboard-response","trial_index":55,"time_elapsed":293471,"internal_node_id":"0.0-19.15-1.15"},{"rt":null,"stimulus":"<div style=\"background-color:#6dce98\"><h1 style=\"background-color:MediumSeaGreen\" >You won a prize! Well done!</h1><div style=\"background-color:#6dce98\"><h1 style=\"background-color:MediumSeaGreen\" >Only 17 left to go!</h1><img id=\"box\" src=\"img/prizes/duck.png\"></img><img id=\"box\" src=\"img/empty/redopenbox.png\"></img></div>","key_press":null,"trial_type":"html-keyboard-response","trial_index":55,"time_elapsed":294973,"internal_node_id":"0.0-19.15-1.15"},{"rt":482.42000001482666,"stimulus":"<p>Choose a box,</p>","button_pressed":3,"trial_type":"html-button-response","trial_index":56,"time_elapsed":295457,"internal_node_id":"0.0-19.16-0.16"},{"rate":0.667304135025444,"trial_type":"html-keyboard-response","trial_index":57,"time_elapsed":295457,"internal_node_id":"0.0-19.16-1.16"},{"rt":null,"stimulus":"<div style=\"background-color:#ff7157\"><h1 style=\"background-color:Tomato\">Bad luck! There was no prize in the box!</h1><h1 style=\"background-color:Tomato\">Remember, you need to keep going until you have 20 prizes!</h1><img id=\"box\" src=\"img/sad/redopenboxsadthumb.png\"></img></div>","key_press":null,"trial_type":"html-keyboard-response","trial_index":57,"time_elapsed":296963,"internal_node_id":"0.0-19.16-1.16"},{"rt":1007.0050000213087,"stimulus":"<p>Choose a box,</p>","button_pressed":3,"trial_type":"html-button-response","trial_index":58,"time_elapsed":297971,"internal_node_id":"0.0-19.17-0.17"},{"rate":0.667304135025444,"trial_type":"html-keyboard-response","trial_index":59,"time_elapsed":297972,"internal_node_id":"0.0-19.17-1.17"},{"rt":null,"stimulus":"<div style=\"background-color:#6dce98\"><h1 style=\"background-color:MediumSeaGreen\" >You won a prize! Well done!</h1><div style=\"background-color:#6dce98\"><h1 style=\"background-color:MediumSeaGreen\" >Only 16 left to go!</h1><img id=\"box\" src=\"img/prizes/bear.png\"></img><img id=\"box\" src=\"img/empty/redopenbox.png\"></img></div>","key_press":null,"trial_type":"html-keyboard-response","trial_index":59,"time_elapsed":299482,"internal_node_id":"0.0-19.17-1.17"},{"rt":796.0300000850111,"stimulus":"<p>Choose a box,</p>","button_pressed":3,"trial_type":"html-button-response","trial_index":60,"time_elapsed":300279,"internal_node_id":"0.0-19.18-0.18"},{"rate":0.667304135025444,"trial_type":"html-keyboard-response","trial_index":61,"time_elapsed":300279,"internal_node_id":"0.0-19.18-1.18"},{"rt":null,"stimulus":"<div style=\"background-color:#ff7157\"><h1 style=\"background-color:Tomato\">Bad luck! There was no prize in the box!</h1><h1 style=\"background-color:Tomato\">Remember, you need to keep going until you have 20 prizes!</h1><img id=\"box\" src=\"img/sad/redopenboxsadthumb.png\"></img></div>","key_press":null,"trial_type":"html-keyboard-response","trial_index":61,"time_elapsed":301781,"internal_node_id":"0.0-19.18-1.18"},{"rt":584.8699999041855,"stimulus":"<p>Choose a box,</p>","button_pressed":0,"trial_type":"html-button-response","trial_index":62,"time_elapsed":302367,"internal_node_id":"0.0-19.19-0.19"},{"rate":0.20493504990756115,"trial_type":"html-keyboard-response","trial_index":63,"time_elapsed":302367,"internal_node_id":"0.0-19.19-1.19"},{"rt":null,"stimulus":"<div style=\"background-color:#ff7157\"><h1 style=\"background-color:Tomato\">Bad luck! There was no prize in the box!</h1><h1 style=\"background-color:Tomato\">Remember, you need to keep going until you have 20 prizes!</h1><img id=\"box\" src=\"img/sad/blueopenboxsadthumb.png\"></img></div>","key_press":null,"trial_type":"html-keyboard-response","trial_index":63,"time_elapsed":303872,"internal_node_id":"0.0-19.19-1.19"},{"rt":130.1150000654161,"stimulus":"<p>Choose a box,</p>","button_pressed":1,"trial_type":"html-button-response","trial_index":64,"time_elapsed":304003,"internal_node_id":"0.0-19.20-0.20"},{"rate":0.7858336885722421,"trial_type":"html-keyboard-response","trial_index":65,"time_elapsed":304003,"internal_node_id":"0.0-19.20-1.20"},{"rt":null,"stimulus":"<div style=\"background-color:#6dce98\"><h1 style=\"background-color:MediumSeaGreen\" >You won a prize! Well done!</h1><div style=\"background-color:#6dce98\"><h1 style=\"background-color:MediumSeaGreen\" >Only 15 left to go!</h1><img id=\"box\" src=\"img/prizes/bear.png\"></img><img id=\"box\" src=\"img/empty/greenopenbox.png\"></img></div>","key_press":null,"trial_type":"html-keyboard-response","trial_index":65,"time_elapsed":305506,"internal_node_id":"0.0-19.20-1.20"},{"rt":776.1900001205504,"stimulus":"<p>Choose a box,</p>","button_pressed":1,"trial_type":"html-button-response","trial_index":66,"time_elapsed":306283,"internal_node_id":"0.0-19.21-0.21"},{"rate":0.7858336885722421,"trial_type":"html-keyboard-response","trial_index":67,"time_elapsed":306283,"internal_node_id":"0.0-19.21-1.21"},{"rt":null,"stimulus":"<div style=\"background-color:#6dce98\"><h1 style=\"background-color:MediumSeaGreen\" >You won a prize! Well done!</h1><div style=\"background-color:#6dce98\"><h1 style=\"background-color:MediumSeaGreen\" >Only 14 left to go!</h1><img id=\"box\" src=\"img/prizes/beachball.png\"></img><img id=\"box\" src=\"img/empty/greenopenbox.png\"></img></div>","key_press":null,"trial_type":"html-keyboard-response","trial_index":67,"time_elapsed":307785,"internal_node_id":"0.0-19.21-1.21"},{"rt":389.3900001421571,"stimulus":"<p>Choose a box,</p>","button_pressed":1,"trial_type":"html-button-response","trial_index":68,"time_elapsed":308175,"internal_node_id":"0.0-19.22-0.22"},{"rate":0.7858336885722421,"trial_type":"html-keyboard-response","trial_index":69,"time_elapsed":308175,"internal_node_id":"0.0-19.22-1.22"},{"rt":null,"stimulus":"<div style=\"background-color:#6dce98\"><h1 style=\"background-color:MediumSeaGreen\" >You won a prize! Well done!</h1><div style=\"background-color:#6dce98\"><h1 style=\"background-color:MediumSeaGreen\" >Only 13 left to go!</h1><img id=\"box\" src=\"img/prizes/lolipop.png\"></img><img id=\"box\" src=\"img/empty/greenopenbox.png\"></img></div>","key_press":null,"trial_type":"html-keyboard-response","trial_index":69,"time_elapsed":309677,"internal_node_id":"0.0-19.22-1.22"},{"rt":340.96499998122454,"stimulus":"<p>Choose a box,</p>","button_pressed":1,"trial_type":"html-button-response","trial_index":70,"time_elapsed":310019,"internal_node_id":"0.0-19.23-0.23"},{"rate":0.7858336885722421,"trial_type":"html-keyboard-response","trial_index":71,"time_elapsed":310020,"internal_node_id":"0.0-19.23-1.23"},{"rt":null,"stimulus":"<div style=\"background-color:#6dce98\"><h1 style=\"background-color:MediumSeaGreen\" >You won a prize! Well done!</h1><div style=\"background-color:#6dce98\"><h1 style=\"background-color:MediumSeaGreen\" >Only 12 left to go!</h1><img id=\"box\" src=\"img/prizes/duck.png\"></img><img id=\"box\" src=\"img/empty/greenopenbox.png\"></img></div>","key_press":null,"trial_type":"html-keyboard-response","trial_index":71,"time_elapsed":311525,"internal_node_id":"0.0-19.23-1.23"},{"rt":360.54499982856214,"stimulus":"<p>Choose a box,</p>","button_pressed":1,"trial_type":"html-button-response","trial_index":72,"time_elapsed":311887,"internal_node_id":"0.0-19.24-0.24"},{"rate":0.7858336885722421,"trial_type":"html-keyboard-response","trial_index":73,"time_elapsed":311887,"internal_node_id":"0.0-19.24-1.24"},{"rt":null,"stimulus":"<div style=\"background-color:#ff7157\"><h1 style=\"background-color:Tomato\">Bad luck! There was no prize in the box!</h1><h1 style=\"background-color:Tomato\">Remember, you need to keep going until you have 20 prizes!</h1><img id=\"box\" src=\"img/sad/greenopenboxsadthumb.png\"></img></div>","key_press":null,"trial_type":"html-keyboard-response","trial_index":73,"time_elapsed":313392,"internal_node_id":"0.0-19.24-1.24"},{"rt":702.2450000513345,"stimulus":"<p>Choose a box,</p>","button_pressed":2,"trial_type":"html-button-response","trial_index":74,"time_elapsed":314095,"internal_node_id":"0.0-19.25-0.25"},{"rate":0.028976176832610195,"trial_type":"html-keyboard-response","trial_index":75,"time_elapsed":314095,"internal_node_id":"0.0-19.25-1.25"},{"rt":null,"stimulus":"<div style=\"background-color:#ff7157\"><h1 style=\"background-color:Tomato\">Bad luck! There was no prize in the box!</h1><h1 style=\"background-color:Tomato\">Remember, you need to keep going until you have 20 prizes!</h1><img id=\"box\" src=\"img/sad/purpleopenboxsadthumb.png\"></img></div>","key_press":null,"trial_type":"html-keyboard-response","trial_index":75,"time_elapsed":315598,"internal_node_id":"0.0-19.25-1.25"},{"rt":1005.7000000961125,"stimulus":"<p>Choose a box,</p>","button_pressed":2,"trial_type":"html-button-response","trial_index":76,"time_elapsed":316605,"internal_node_id":"0.0-19.26-0.26"},{"rate":0.028976176832610195,"trial_type":"html-keyboard-response","trial_index":77,"time_elapsed":316605,"internal_node_id":"0.0-19.26-1.26"},{"rt":null,"stimulus":"<div style=\"background-color:#ff7157\"><h1 style=\"background-color:Tomato\">Bad luck! There was no prize in the box!</h1><h1 style=\"background-color:Tomato\">Remember, you need to keep going until you have 20 prizes!</h1><img id=\"box\" src=\"img/sad/purpleopenboxsadthumb.png\"></img></div>","key_press":null,"trial_type":"html-keyboard-response","trial_index":77,"time_elapsed":318117,"internal_node_id":"0.0-19.26-1.26"},{"rt":363.10499999672174,"stimulus":"<p>Choose a box,</p>","button_pressed":1,"trial_type":"html-button-response","trial_index":78,"time_elapsed":318481,"internal_node_id":"0.0-19.27-0.27"},{"rate":0.7858336885722421,"trial_type":"html-keyboard-response","trial_index":79,"time_elapsed":318483,"internal_node_id":"0.0-19.27-1.27"},{"rt":null,"stimulus":"<div style=\"background-color:#6dce98\"><h1 style=\"background-color:MediumSeaGreen\" >You won a prize! Well done!</h1><div style=\"background-color:#6dce98\"><h1 style=\"background-color:MediumSeaGreen\" >Only 11 left to go!</h1><img id=\"box\" src=\"img/prizes/ring.png\"></img><img id=\"box\" src=\"img/empty/greenopenbox.png\"></img></div>","key_press":null,"trial_type":"html-keyboard-response","trial_index":79,"time_elapsed":319996,"internal_node_id":"0.0-19.27-1.27"},{"rt":415.88500002399087,"stimulus":"<p>Choose a box,</p>","button_pressed":1,"trial_type":"html-button-response","trial_index":80,"time_elapsed":320413,"internal_node_id":"0.0-19.28-0.28"},{"rate":0.7858336885722421,"trial_type":"html-keyboard-response","trial_index":81,"time_elapsed":320413,"internal_node_id":"0.0-19.28-1.28"},{"rt":null,"stimulus":"<div style=\"background-color:#6dce98\"><h1 style=\"background-color:MediumSeaGreen\" >You won a prize! Well done!</h1><div style=\"background-color:#6dce98\"><h1 style=\"background-color:MediumSeaGreen\" >Only 10 left to go!</h1><img id=\"box\" src=\"img/prizes/bear.png\"></img><img id=\"box\" src=\"img/empty/greenopenbox.png\"></img></div>","key_press":null,"trial_type":"html-keyboard-response","trial_index":81,"time_elapsed":321925,"internal_node_id":"0.0-19.28-1.28"},{"rt":390.2900000102818,"stimulus":"<p>Choose a box,</p>","button_pressed":1,"trial_type":"html-button-response","trial_index":82,"time_elapsed":322317,"internal_node_id":"0.0-19.29-0.29"},{"rate":0.7858336885722421,"trial_type":"html-keyboard-response","trial_index":83,"time_elapsed":322317,"internal_node_id":"0.0-19.29-1.29"},{"rt":null,"stimulus":"<div style=\"background-color:#6dce98\"><h1 style=\"background-color:MediumSeaGreen\" >You won a prize! Well done!</h1><div style=\"background-color:#6dce98\"><h1 style=\"background-color:MediumSeaGreen\" >Only 9 left to go!</h1><img id=\"box\" src=\"img/prizes/bear.png\"></img><img id=\"box\" src=\"img/empty/greenopenbox.png\"></img></div>","key_press":null,"trial_type":"html-keyboard-response","trial_index":83,"time_elapsed":323821,"internal_node_id":"0.0-19.29-1.29"},{"rt":380.159999942407,"stimulus":"<p>Choose a box,</p>","button_pressed":1,"trial_type":"html-button-response","trial_index":84,"time_elapsed":324203,"internal_node_id":"0.0-19.30-0.30"},{"rate":0.7858336885722421,"trial_type":"html-keyboard-response","trial_index":85,"time_elapsed":324203,"internal_node_id":"0.0-19.30-1.30"},{"rt":null,"stimulus":"<div style=\"background-color:#ff7157\"><h1 style=\"background-color:Tomato\">Bad luck! There was no prize in the box!</h1><h1 style=\"background-color:Tomato\">Remember, you need to keep going until you have 20 prizes!</h1><img id=\"box\" src=\"img/sad/greenopenboxsadthumb.png\"></img></div>","key_press":null,"trial_type":"html-keyboard-response","trial_index":85,"time_elapsed":325715,"internal_node_id":"0.0-19.30-1.30"},{"rt":861.0450001433492,"stimulus":"<p>Choose a box,</p>","button_pressed":0,"trial_type":"html-button-response","trial_index":86,"time_elapsed":326577,"internal_node_id":"0.0-19.31-0.31"},{"rate":0.20493504990756115,"trial_type":"html-keyboard-response","trial_index":87,"time_elapsed":326577,"internal_node_id":"0.0-19.31-1.31"},{"rt":null,"stimulus":"<div style=\"background-color:#ff7157\"><h1 style=\"background-color:Tomato\">Bad luck! There was no prize in the box!</h1><h1 style=\"background-color:Tomato\">Remember, you need to keep going until you have 20 prizes!</h1><img id=\"box\" src=\"img/sad/blueopenboxsadthumb.png\"></img></div>","key_press":null,"trial_type":"html-keyboard-response","trial_index":87,"time_elapsed":328090,"internal_node_id":"0.0-19.31-1.31"},{"rt":505.3749999497086,"stimulus":"<p>Choose a box,</p>","button_pressed":0,"trial_type":"html-button-response","trial_index":88,"time_elapsed":328597,"internal_node_id":"0.0-19.32-0.32"},{"rate":0.20493504990756115,"trial_type":"html-keyboard-response","trial_index":89,"time_elapsed":328597,"internal_node_id":"0.0-19.32-1.32"},{"rt":null,"stimulus":"<div style=\"background-color:#ff7157\"><h1 style=\"background-color:Tomato\">Bad luck! There was no prize in the box!</h1><h1 style=\"background-color:Tomato\">Remember, you need to keep going until you have 20 prizes!</h1><img id=\"box\" src=\"img/sad/blueopenboxsadthumb.png\"></img></div>","key_press":null,"trial_type":"html-keyboard-response","trial_index":89,"time_elapsed":330110,"internal_node_id":"0.0-19.32-1.32"},{"rt":425.52999989129603,"stimulus":"<p>Choose a box,</p>","button_pressed":1,"trial_type":"html-button-response","trial_index":90,"time_elapsed":330537,"internal_node_id":"0.0-19.33-0.33"},{"rate":0.7858336885722421,"trial_type":"html-keyboard-response","trial_index":91,"time_elapsed":330537,"internal_node_id":"0.0-19.33-1.33"},{"rt":null,"stimulus":"<div style=\"background-color:#ff7157\"><h1 style=\"background-color:Tomato\">Bad luck! There was no prize in the box!</h1><h1 style=\"background-color:Tomato\">Remember, you need to keep going until you have 20 prizes!</h1><img id=\"box\" src=\"img/sad/greenopenboxsadthumb.png\"></img></div>","key_press":null,"trial_type":"html-keyboard-response","trial_index":91,"time_elapsed":332047,"internal_node_id":"0.0-19.33-1.33"},{"rt":434.8149998113513,"stimulus":"<p>Choose a box,</p>","button_pressed":2,"trial_type":"html-button-response","trial_index":92,"time_elapsed":332483,"internal_node_id":"0.0-19.34-0.34"},{"rate":0.028976176832610195,"trial_type":"html-keyboard-response","trial_index":93,"time_elapsed":332483,"internal_node_id":"0.0-19.34-1.34"},{"rt":null,"stimulus":"<div style=\"background-color:#ff7157\"><h1 style=\"background-color:Tomato\">Bad luck! There was no prize in the box!</h1><h1 style=\"background-color:Tomato\">Remember, you need to keep going until you have 20 prizes!</h1><img id=\"box\" src=\"img/sad/purpleopenboxsadthumb.png\"></img></div>","key_press":null,"trial_type":"html-keyboard-response","trial_index":93,"time_elapsed":333985,"internal_node_id":"0.0-19.34-1.34"},{"rt":321.20499992743134,"stimulus":"<p>Choose a box,</p>","button_pressed":2,"trial_type":"html-button-response","trial_index":94,"time_elapsed":334307,"internal_node_id":"0.0-19.35-0.35"},{"rate":0.028976176832610195,"trial_type":"html-keyboard-response","trial_index":95,"time_elapsed":334307,"internal_node_id":"0.0-19.35-1.35"},{"rt":null,"stimulus":"<div style=\"background-color:#ff7157\"><h1 style=\"background-color:Tomato\">Bad luck! There was no prize in the box!</h1><h1 style=\"background-color:Tomato\">Remember, you need to keep going until you have 20 prizes!</h1><img id=\"box\" src=\"img/sad/purpleopenboxsadthumb.png\"></img></div>","key_press":null,"trial_type":"html-keyboard-response","trial_index":95,"time_elapsed":335808,"internal_node_id":"0.0-19.35-1.35"},{"rt":299.4799998123199,"stimulus":"<p>Choose a box,</p>","button_pressed":3,"trial_type":"html-button-response","trial_index":96,"time_elapsed":336109,"internal_node_id":"0.0-19.36-0.36"},{"rate":0.667304135025444,"trial_type":"html-keyboard-response","trial_index":97,"time_elapsed":336109,"internal_node_id":"0.0-19.36-1.36"},{"rt":null,"stimulus":"<div style=\"background-color:#6dce98\"><h1 style=\"background-color:MediumSeaGreen\" >You won a prize! Well done!</h1><div style=\"background-color:#6dce98\"><h1 style=\"background-color:MediumSeaGreen\" >Only 8 left to go!</h1><img id=\"box\" src=\"img/prizes/bear.png\"></img><img id=\"box\" src=\"img/empty/redopenbox.png\"></img></div>","key_press":null,"trial_type":"html-keyboard-response","trial_index":97,"time_elapsed":337610,"internal_node_id":"0.0-19.36-1.36"},{"rt":311.5100001450628,"stimulus":"<p>Choose a box,</p>","button_pressed":3,"trial_type":"html-button-response","trial_index":98,"time_elapsed":337923,"internal_node_id":"0.0-19.37-0.37"},{"rate":0.667304135025444,"trial_type":"html-keyboard-response","trial_index":99,"time_elapsed":337923,"internal_node_id":"0.0-19.37-1.37"},{"rt":null,"stimulus":"<div style=\"background-color:#6dce98\"><h1 style=\"background-color:MediumSeaGreen\" >You won a prize! Well done!</h1><div style=\"background-color:#6dce98\"><h1 style=\"background-color:MediumSeaGreen\" >Only 7 left to go!</h1><img id=\"box\" src=\"img/prizes/choc.png\"></img><img id=\"box\" src=\"img/empty/redopenbox.png\"></img></div>","key_press":null,"trial_type":"html-keyboard-response","trial_index":99,"time_elapsed":339428,"internal_node_id":"0.0-19.37-1.37"},{"rt":377.915000077337,"stimulus":"<p>Choose a box,</p>","button_pressed":3,"trial_type":"html-button-response","trial_index":100,"time_elapsed":339807,"internal_node_id":"0.0-19.38-0.38"},{"rate":0.667304135025444,"trial_type":"html-keyboard-response","trial_index":101,"time_elapsed":339807,"internal_node_id":"0.0-19.38-1.38"},{"rt":null,"stimulus":"<div style=\"background-color:#ff7157\"><h1 style=\"background-color:Tomato\">Bad luck! There was no prize in the box!</h1><h1 style=\"background-color:Tomato\">Remember, you need to keep going until you have 20 prizes!</h1><img id=\"box\" src=\"img/sad/redopenboxsadthumb.png\"></img></div>","key_press":null,"trial_type":"html-keyboard-response","trial_index":101,"time_elapsed":341309,"internal_node_id":"0.0-19.38-1.38"},{"rt":437.19500000588596,"stimulus":"<p>Choose a box,</p>","button_pressed":2,"trial_type":"html-button-response","trial_index":102,"time_elapsed":341747,"internal_node_id":"0.0-19.39-0.39"},{"rate":0.028976176832610195,"trial_type":"html-keyboard-response","trial_index":103,"time_elapsed":341747,"internal_node_id":"0.0-19.39-1.39"},{"rt":null,"stimulus":"<div style=\"background-color:#ff7157\"><h1 style=\"background-color:Tomato\">Bad luck! There was no prize in the box!</h1><h1 style=\"background-color:Tomato\">Remember, you need to keep going until you have 20 prizes!</h1><img id=\"box\" src=\"img/sad/purpleopenboxsadthumb.png\"></img></div>","key_press":null,"trial_type":"html-keyboard-response","trial_index":103,"time_elapsed":343249,"internal_node_id":"0.0-19.39-1.39"},{"rt":369.1499999258667,"stimulus":"<p>Choose a box,</p>","button_pressed":2,"trial_type":"html-button-response","trial_index":104,"time_elapsed":343619,"internal_node_id":"0.0-19.40-0.40"},{"rate":0.028976176832610195,"trial_type":"html-keyboard-response","trial_index":105,"time_elapsed":343619,"internal_node_id":"0.0-19.40-1.40"},{"rt":null,"stimulus":"<div style=\"background-color:#ff7157\"><h1 style=\"background-color:Tomato\">Bad luck! There was no prize in the box!</h1><h1 style=\"background-color:Tomato\">Remember, you need to keep going until you have 20 prizes!</h1><img id=\"box\" src=\"img/sad/purpleopenboxsadthumb.png\"></img></div>","key_press":null,"trial_type":"html-keyboard-response","trial_index":105,"time_elapsed":345132,"internal_node_id":"0.0-19.40-1.40"},{"rt":343.84999983012676,"stimulus":"<p>Choose a box,</p>","button_pressed":2,"trial_type":"html-button-response","trial_index":106,"time_elapsed":345477,"internal_node_id":"0.0-19.41-0.41"},{"rate":0.028976176832610195,"trial_type":"html-keyboard-response","trial_index":107,"time_elapsed":345477,"internal_node_id":"0.0-19.41-1.41"},{"rt":null,"stimulus":"<div style=\"background-color:#ff7157\"><h1 style=\"background-color:Tomato\">Bad luck! There was no prize in the box!</h1><h1 style=\"background-color:Tomato\">Remember, you need to keep going until you have 20 prizes!</h1><img id=\"box\" src=\"img/sad/purpleopenboxsadthumb.png\"></img></div>","key_press":null,"trial_type":"html-keyboard-response","trial_index":107,"time_elapsed":346985,"internal_node_id":"0.0-19.41-1.41"},{"rt":346.2350000627339,"stimulus":"<p>Choose a box,</p>","button_pressed":1,"trial_type":"html-button-response","trial_index":108,"time_elapsed":347333,"internal_node_id":"0.0-19.42-0.42"},{"rate":0.7858336885722421,"trial_type":"html-keyboard-response","trial_index":109,"time_elapsed":347333,"internal_node_id":"0.0-19.42-1.42"},{"rt":null,"stimulus":"<div style=\"background-color:#6dce98\"><h1 style=\"background-color:MediumSeaGreen\" >You won a prize! Well done!</h1><div style=\"background-color:#6dce98\"><h1 style=\"background-color:MediumSeaGreen\" >Only 6 left to go!</h1><img id=\"box\" src=\"img/prizes/choc.png\"></img><img id=\"box\" src=\"img/empty/greenopenbox.png\"></img></div>","key_press":null,"trial_type":"html-keyboard-response","trial_index":109,"time_elapsed":348849,"internal_node_id":"0.0-19.42-1.42"},{"rt":342.3699999693781,"stimulus":"<p>Choose a box,</p>","button_pressed":1,"trial_type":"html-button-response","trial_index":110,"time_elapsed":349193,"internal_node_id":"0.0-19.43-0.43"},{"rate":0.7858336885722421,"trial_type":"html-keyboard-response","trial_index":111,"time_elapsed":349193,"internal_node_id":"0.0-19.43-1.43"},{"rt":null,"stimulus":"<div style=\"background-color:#6dce98\"><h1 style=\"background-color:MediumSeaGreen\" >You won a prize! Well done!</h1><div style=\"background-color:#6dce98\"><h1 style=\"background-color:MediumSeaGreen\" >Only 5 left to go!</h1><img id=\"box\" src=\"img/prizes/yoyo.png\"></img><img id=\"box\" src=\"img/empty/greenopenbox.png\"></img></div>","key_press":null,"trial_type":"html-keyboard-response","trial_index":111,"time_elapsed":350698,"internal_node_id":"0.0-19.43-1.43"},{"rt":364.0300000552088,"stimulus":"<p>Choose a box,</p>","button_pressed":1,"trial_type":"html-button-response","trial_index":112,"time_elapsed":351063,"internal_node_id":"0.0-19.44-0.44"},{"rate":0.7858336885722421,"trial_type":"html-keyboard-response","trial_index":113,"time_elapsed":351063,"internal_node_id":"0.0-19.44-1.44"},{"rt":null,"stimulus":"<div style=\"background-color:#6dce98\"><h1 style=\"background-color:MediumSeaGreen\" >You won a prize! Well done!</h1><div style=\"background-color:#6dce98\"><h1 style=\"background-color:MediumSeaGreen\" >Only 4 left to go!</h1><img id=\"box\" src=\"img/prizes/beachball.png\"></img><img id=\"box\" src=\"img/empty/greenopenbox.png\"></img></div>","key_press":null,"trial_type":"html-keyboard-response","trial_index":113,"time_elapsed":352580,"internal_node_id":"0.0-19.44-1.44"},{"rt":354.2750000488013,"stimulus":"<p>Choose a box,</p>","button_pressed":1,"trial_type":"html-button-response","trial_index":114,"time_elapsed":352936,"internal_node_id":"0.0-19.45-0.45"},{"rate":0.7858336885722421,"trial_type":"html-keyboard-response","trial_index":115,"time_elapsed":352936,"internal_node_id":"0.0-19.45-1.45"},{"rt":null,"stimulus":"<div style=\"background-color:#ff7157\"><h1 style=\"background-color:Tomato\">Bad luck! There was no prize in the box!</h1><h1 style=\"background-color:Tomato\">Remember, you need to keep going until you have 20 prizes!</h1><img id=\"box\" src=\"img/sad/greenopenboxsadthumb.png\"></img></div>","key_press":null,"trial_type":"html-keyboard-response","trial_index":115,"time_elapsed":354437,"internal_node_id":"0.0-19.45-1.45"},{"rt":362.9900000523776,"stimulus":"<p>Choose a box,</p>","button_pressed":0,"trial_type":"html-button-response","trial_index":116,"time_elapsed":354801,"internal_node_id":"0.0-19.46-0.46"},{"rate":0.20493504990756115,"trial_type":"html-keyboard-response","trial_index":117,"time_elapsed":354801,"internal_node_id":"0.0-19.46-1.46"},{"rt":null,"stimulus":"<div style=\"background-color:#6dce98\"><h1 style=\"background-color:MediumSeaGreen\" >You won a prize! Well done!</h1><div style=\"background-color:#6dce98\"><h1 style=\"background-color:MediumSeaGreen\" >Only 3 left to go!</h1><img id=\"box\" src=\"img/prizes/ring.png\"></img><img id=\"box\" src=\"img/empty/blueopenbox.png\"></img></div>","key_press":null,"trial_type":"html-keyboard-response","trial_index":117,"time_elapsed":356303,"internal_node_id":"0.0-19.46-1.46"},{"rt":393.2299998123199,"stimulus":"<p>Choose a box,</p>","button_pressed":0,"trial_type":"html-button-response","trial_index":118,"time_elapsed":356697,"internal_node_id":"0.0-19.47-0.47"},{"rate":0.20493504990756115,"trial_type":"html-keyboard-response","trial_index":119,"time_elapsed":356697,"internal_node_id":"0.0-19.47-1.47"},{"rt":null,"stimulus":"<div style=\"background-color:#6dce98\"><h1 style=\"background-color:MediumSeaGreen\" >You won a prize! Well done!</h1><div style=\"background-color:#6dce98\"><h1 style=\"background-color:MediumSeaGreen\" >Only 2 left to go!</h1><img id=\"box\" src=\"img/prizes/choc.png\"></img><img id=\"box\" src=\"img/empty/blueopenbox.png\"></img></div>","key_press":null,"trial_type":"html-keyboard-response","trial_index":119,"time_elapsed":358212,"internal_node_id":"0.0-19.47-1.47"},{"rt":381.88500003889203,"stimulus":"<p>Choose a box,</p>","button_pressed":0,"trial_type":"html-button-response","trial_index":120,"time_elapsed":358595,"internal_node_id":"0.0-19.48-0.48"},{"rate":0.20493504990756115,"trial_type":"html-keyboard-response","trial_index":121,"time_elapsed":358595,"internal_node_id":"0.0-19.48-1.48"},{"rt":null,"stimulus":"<div style=\"background-color:#ff7157\"><h1 style=\"background-color:Tomato\">Bad luck! There was no prize in the box!</h1><h1 style=\"background-color:Tomato\">Remember, you need to keep going until you have 20 prizes!</h1><img id=\"box\" src=\"img/sad/blueopenboxsadthumb.png\"></img></div>","key_press":null,"trial_type":"html-keyboard-response","trial_index":121,"time_elapsed":360097,"internal_node_id":"0.0-19.48-1.48"},{"rt":485.1499998476356,"stimulus":"<p>Choose a box,</p>","button_pressed":0,"trial_type":"html-button-response","trial_index":122,"time_elapsed":360583,"internal_node_id":"0.0-19.49-0.49"},{"rate":0.20493504990756115,"trial_type":"html-keyboard-response","trial_index":123,"time_elapsed":360584,"internal_node_id":"0.0-19.49-1.49"},{"rt":null,"stimulus":"<div style=\"background-color:#ff7157\"><h1 style=\"background-color:Tomato\">Bad luck! There was no prize in the box!</h1><h1 style=\"background-color:Tomato\">Remember, you need to keep going until you have 20 prizes!</h1><img id=\"box\" src=\"img/sad/blueopenboxsadthumb.png\"></img></div>","key_press":null,"trial_type":"html-keyboard-response","trial_index":123,"time_elapsed":362085,"internal_node_id":"0.0-19.49-1.49"},{"rt":841.4600000251085,"stimulus":"<p>Choose a box,</p>","button_pressed":1,"trial_type":"html-button-response","trial_index":124,"time_elapsed":362927,"internal_node_id":"0.0-19.50-0.50"},{"rate":0.7858336885722421,"trial_type":"html-keyboard-response","trial_index":125,"time_elapsed":362928,"internal_node_id":"0.0-19.50-1.50"},{"rt":null,"stimulus":"<div style=\"background-color:#6dce98\"><h1 style=\"background-color:MediumSeaGreen\" >You won a prize! Well done!</h1><div style=\"background-color:#6dce98\"><h1 style=\"background-color:MediumSeaGreen\" >Only 1 left to go!</h1><img id=\"box\" src=\"img/prizes/duck.png\"></img><img id=\"box\" src=\"img/empty/greenopenbox.png\"></img></div>","key_press":null,"trial_type":"html-keyboard-response","trial_index":125,"time_elapsed":364437,"internal_node_id":"0.0-19.50-1.50"},{"rt":341.3499998860061,"stimulus":"<p>Choose a box,</p>","button_pressed":1,"trial_type":"html-button-response","trial_index":126,"time_elapsed":364779,"internal_node_id":"0.0-19.51-0.51"},{"rate":0.7858336885722421,"trial_type":"html-keyboard-response","trial_index":127,"time_elapsed":364779,"internal_node_id":"0.0-19.51-1.51"},{"rt":null,"stimulus":"<div style=\"background-color:#6dce98\"><h1 style=\"background-color:MediumSeaGreen\" >You won a prize! Well done!</h1><div style=\"background-color:#6dce98\"><h1 style=\"background-color:MediumSeaGreen\" >Only 0 left to go!</h1><img id=\"box\" src=\"img/prizes/yoyo.png\"></img><img id=\"box\" src=\"img/empty/greenopenbox.png\"></img></div>","key_press":null,"trial_type":"html-keyboard-response","trial_index":127,"time_elapsed":366281,"internal_node_id":"0.0-19.51-1.51"},{"rt":236679.04500011355,"responses":"{\"Q0\":\"I think it was a tiring experiment and it required me to guess which box had a present\",\"Q1\":\"At first I pick the boxes that were more appealing to me, in terms of colour. Once I found a present, I kept picking the same box until there were no more presents and I had to figure out which other box had the present.\"}","trial_type":"survey-text","trial_index":128,"time_elapsed":602967,"internal_node_id":"0.0-20.0"}]