[{"view_history":"[{\"page_index\":0,\"viewing_time\":47976.95999999996},{\"page_index\":1,\"viewing_time\":38030.39499999977},{\"page_index\":2,\"viewing_time\":35189.75499999942},{\"page_index\":3,\"viewing_time\":19926.699999999983},{\"page_index\":4,\"viewing_time\":19443.05499999973},{\"page_index\":5,\"viewing_time\":39464.50499999992}]","rt":200032.3499999995,"trial_type":"instructions","trial_index":0,"time_elapsed":200037,"internal_node_id":"0.0-0.0"},{"rt":9125.519999999582,"responses":"{\"Q0\":\"Yes\",\"Q1\":\"Yes\",\"Q2\":\"Yes\"}","question_order":"[0,1,2]","trial_type":"survey-multi-choice","trial_index":1,"time_elapsed":209166,"internal_node_id":"0.0-1.0-0.0"},{"rt":8178.239999999263,"responses":"{\"Q0\":\"Yes\",\"Q1\":\"Yes\",\"Q2\":\"Yes\"}","question_order":"[0,1,2]","trial_type":"survey-multi-choice","trial_index":2,"time_elapsed":217350,"internal_node_id":"0.0-2.0-0.0"},{"rt":5970.88500000065,"responses":"{\"Q0\":\"5e66a6f3ae413f08251afcb0\"}","trial_type":"survey-text","trial_index":3,"time_elapsed":223328,"internal_node_id":"0.0-3.0"},{"rt":13712.97499999855,"responses":"{\"Q0\":\"Other\",\"Q1\":\"18-25\"}","question_order":"[0,1]","trial_type":"survey-multi-choice","trial_index":4,"time_elapsed":237042,"internal_node_id":"0.0-4.0"},{"rt":7793.805000001157,"responses":"{\"Q0\":\"None\"}","trial_type":"survey-text","trial_index":5,"time_elapsed":244842,"internal_node_id":"0.0-5.0"},{"view_history":"[{\"page_index\":0,\"viewing_time\":7116.680000001012}]","rt":7116.920000000391,"trial_type":"instructions","trial_index":6,"time_elapsed":251960,"internal_node_id":"0.0-6.0"},{"rt":16743.790000000445,"responses":"{\"Interested\":4,\"Distressed\":4,\"Excited\":2,\"Upset\":4}","question_order":"[0,1,2,3]","trial_type":"survey-likert","trial_index":7,"time_elapsed":268706,"internal_node_id":"0.0-7.0"},{"rt":16016.564999999944,"responses":"{\"Strong\":3,\"Guilty\":4,\"Scared\":3,\"Hostile\":3}","question_order":"[0,1,2,3]","trial_type":"survey-likert","trial_index":8,"time_elapsed":284728,"internal_node_id":"0.0-8.0"},{"rt":9305.130000000703,"responses":"{\"Enthusiastic\":2,\"Proud\":3,\"Irritable\":4,\"Alert\":4}","question_order":"[0,1,2,3]","trial_type":"survey-likert","trial_index":9,"time_elapsed":294038,"internal_node_id":"0.0-9.0"},{"rt":10684.49499999953,"responses":"{\"Ashamed\":3,\"Inspired\":3,\"Nervous\":4,\"Determined\":4}","question_order":"[0,1,2,3]","trial_type":"survey-likert","trial_index":10,"time_elapsed":304728,"internal_node_id":"0.0-10.0"},{"rt":16178.415000000328,"responses":"{\"Attentive\":3,\"Jittery\":2,\"Active\":1,\"Afraid\":4}","question_order":"[0,1,2,3]","trial_type":"survey-likert","trial_index":11,"time_elapsed":320911,"internal_node_id":"0.0-11.0"},{"rt":18082.03999999934,"responses":"{\"Q0\":2,\"Q1\":3,\"Q2\":3,\"Q3\":3}","question_order":"[0,1,2,3]","trial_type":"survey-likert","trial_index":12,"time_elapsed":338999,"internal_node_id":"0.0-12.0"},{"rt":33015.61499999842,"responses":"{\"Q0\":1,\"Q1\":3,\"Q2\":1,\"Q3\":2}","question_order":"[0,1,2,3]","trial_type":"survey-likert","trial_index":13,"time_elapsed":372021,"internal_node_id":"0.0-13.0"},{"rt":9484.824999999546,"responses":"{\"Q0\":3,\"Q1\":3,\"Q2\":3,\"Q3\":3}","question_order":"[0,1,2,3]","trial_type":"survey-likert","trial_index":14,"time_elapsed":381510,"internal_node_id":"0.0-14.0"},{"rt":15431.184999999474,"responses":"{\"Q0\":3,\"Q1\":3,\"Q2\":3}","question_order":"[0,1,2]","trial_type":"survey-likert","trial_index":15,"time_elapsed":396946,"internal_node_id":"0.0-15.0"},{"view_history":"[{\"page_index\":0,\"viewing_time\":2532.994999999588},{\"page_index\":1,\"viewing_time\":12208.479999999341},{\"page_index\":2,\"viewing_time\":9971.7049999999}]","rt":24713.67000000103,"trial_type":"instructions","trial_index":16,"time_elapsed":421667,"internal_node_id":"0.0-16.0"},{"rt":2431.459999999788,"stimulus":"<p>Choose a box,</p>","button_pressed":1,"trial_type":"html-button-response","trial_index":17,"time_elapsed":424101,"internal_node_id":"0.0-17.0-0.0"},{"rate":0.4790113869144099,"trial_type":"html-keyboard-response","trial_index":18,"time_elapsed":424102,"internal_node_id":"0.0-17.0-1.0"},{"rt":null,"stimulus":"<div style=\"background-color:#ff7157\"><h1 style=\"background-color:Tomato\">Bad luck! There was no prize in the box!</h1><h1 style=\"background-color:Tomato\">Remember, you need to keep going until you have 20 prizes!</h1><img id=\"box\" src=\"img/sad/greenopenboxsadthumb.png\"></img></div>","key_press":null,"trial_type":"html-keyboard-response","trial_index":18,"time_elapsed":425603,"internal_node_id":"0.0-17.0-1.0"},{"rt":1855.810000000929,"stimulus":"<p>Choose a box,</p>","button_pressed":0,"trial_type":"html-button-response","trial_index":19,"time_elapsed":427461,"internal_node_id":"0.0-17.0-0.1"},{"rate":0.776081404105638,"trial_type":"html-keyboard-response","trial_index":20,"time_elapsed":427462,"internal_node_id":"0.0-17.0-1.1"},{"rt":null,"stimulus":"<div style=\"background-color:#ff7157\"><h1 style=\"background-color:Tomato\">Bad luck! There was no prize in the box!</h1><h1 style=\"background-color:Tomato\">Remember, you need to keep going until you have 20 prizes!</h1><img id=\"box\" src=\"img/sad/blueopenboxsadthumb.png\"></img></div>","key_press":null,"trial_type":"html-keyboard-response","trial_index":20,"time_elapsed":428968,"internal_node_id":"0.0-17.0-1.1"},{"rt":2658.049999998184,"stimulus":"<p>Choose a box,</p>","button_pressed":1,"trial_type":"html-button-response","trial_index":21,"time_elapsed":431628,"internal_node_id":"0.0-17.0-0.2"},{"rate":0.4790113869144099,"trial_type":"html-keyboard-response","trial_index":22,"time_elapsed":431628,"internal_node_id":"0.0-17.0-1.2"},{"rt":null,"stimulus":"<div style=\"background-color:#ff7157\"><h1 style=\"background-color:Tomato\">Bad luck! There was no prize in the box!</h1><h1 style=\"background-color:Tomato\">Remember, you need to keep going until you have 20 prizes!</h1><img id=\"box\" src=\"img/sad/greenopenboxsadthumb.png\"></img></div>","key_press":null,"trial_type":"html-keyboard-response","trial_index":22,"time_elapsed":433138,"internal_node_id":"0.0-17.0-1.2"},{"view_history":"[{\"page_index\":0,\"viewing_time\":5262.899999997928}]","rt":5263.25,"trial_type":"instructions","trial_index":23,"time_elapsed":438405,"internal_node_id":"0.0-18.0"},{"rt":4518.065000000177,"stimulus":"<p>Choose a box,</p>","button_pressed":3,"trial_type":"html-button-response","trial_index":24,"time_elapsed":442925,"internal_node_id":"0.0-19.0-0.0"},{"rate":0.21392426075849988,"trial_type":"html-keyboard-response","trial_index":25,"time_elapsed":442926,"internal_node_id":"0.0-19.0-1.0"},{"rt":null,"stimulus":"<div style=\"background-color:#ff7157\"><h1 style=\"background-color:Tomato\">Bad luck! There was no prize in the box!</h1><h1 style=\"background-color:Tomato\">Remember, you need to keep going until you have 20 prizes!</h1><img id=\"box\" src=\"img/sad/redopenboxsadthumb.png\"></img></div>","key_press":null,"trial_type":"html-keyboard-response","trial_index":25,"time_elapsed":444442,"internal_node_id":"0.0-19.0-1.0"},{"rt":969.5799999972223,"stimulus":"<p>Choose a box,</p>","button_pressed":2,"trial_type":"html-button-response","trial_index":26,"time_elapsed":445413,"internal_node_id":"0.0-19.1-0.1"},{"rate":0.08628973977997913,"trial_type":"html-keyboard-response","trial_index":27,"time_elapsed":445413,"internal_node_id":"0.0-19.1-1.1"},{"rt":null,"stimulus":"<div style=\"background-color:#ff7157\"><h1 style=\"background-color:Tomato\">Bad luck! There was no prize in the box!</h1><h1 style=\"background-color:Tomato\">Remember, you need to keep going until you have 20 prizes!</h1><img id=\"box\" src=\"img/sad/purpleopenboxsadthumb.png\"></img></div>","key_press":null,"trial_type":"html-keyboard-response","trial_index":27,"time_elapsed":446915,"internal_node_id":"0.0-19.1-1.1"},{"rt":629.9499999986147,"stimulus":"<p>Choose a box,</p>","button_pressed":1,"trial_type":"html-button-response","trial_index":28,"time_elapsed":447546,"internal_node_id":"0.0-19.2-0.2"},{"rate":0.8037288476911632,"trial_type":"html-keyboard-response","trial_index":29,"time_elapsed":447546,"internal_node_id":"0.0-19.2-1.2"},{"rt":null,"stimulus":"<div style=\"background-color:#ff7157\"><h1 style=\"background-color:Tomato\">Bad luck! There was no prize in the box!</h1><h1 style=\"background-color:Tomato\">Remember, you need to keep going until you have 20 prizes!</h1><img id=\"box\" src=\"img/sad/greenopenboxsadthumb.png\"></img></div>","key_press":null,"trial_type":"html-keyboard-response","trial_index":29,"time_elapsed":449048,"internal_node_id":"0.0-19.2-1.2"},{"rt":640.1399999994901,"stimulus":"<p>Choose a box,</p>","button_pressed":0,"trial_type":"html-button-response","trial_index":30,"time_elapsed":449689,"internal_node_id":"0.0-19.3-0.3"},{"rate":0.6005988871011778,"trial_type":"html-keyboard-response","trial_index":31,"time_elapsed":449689,"internal_node_id":"0.0-19.3-1.3"},{"rt":null,"stimulus":"<div style=\"background-color:#ff7157\"><h1 style=\"background-color:Tomato\">Bad luck! There was no prize in the box!</h1><h1 style=\"background-color:Tomato\">Remember, you need to keep going until you have 20 prizes!</h1><img id=\"box\" src=\"img/sad/blueopenboxsadthumb.png\"></img></div>","key_press":null,"trial_type":"html-keyboard-response","trial_index":31,"time_elapsed":451192,"internal_node_id":"0.0-19.3-1.3"},{"rt":3215.9299999984796,"stimulus":"<p>Choose a box,</p>","button_pressed":1,"trial_type":"html-button-response","trial_index":32,"time_elapsed":454410,"internal_node_id":"0.0-19.4-0.4"},{"rate":0.8037288476911632,"trial_type":"html-keyboard-response","trial_index":33,"time_elapsed":454410,"internal_node_id":"0.0-19.4-1.4"},{"rt":null,"stimulus":"<div style=\"background-color:#6dce98\"><h1 style=\"background-color:MediumSeaGreen\" >You won a prize! Well done!</h1><div style=\"background-color:#6dce98\"><h1 style=\"background-color:MediumSeaGreen\" >Only 19 left to go!</h1><img id=\"box\" src=\"img/prizes/coins.png\"></img><img id=\"box\" src=\"img/empty/greenopenbox.png\"></img></div>","key_press":null,"trial_type":"html-keyboard-response","trial_index":33,"time_elapsed":455919,"internal_node_id":"0.0-19.4-1.4"},{"rt":1850.6000000015483,"stimulus":"<p>Choose a box,</p>","button_pressed":1,"trial_type":"html-button-response","trial_index":34,"time_elapsed":457772,"internal_node_id":"0.0-19.5-0.5"},{"rate":0.8037288476911632,"trial_type":"html-keyboard-response","trial_index":35,"time_elapsed":457772,"internal_node_id":"0.0-19.5-1.5"},{"rt":null,"stimulus":"<div style=\"background-color:#6dce98\"><h1 style=\"background-color:MediumSeaGreen\" >You won a prize! Well done!</h1><div style=\"background-color:#6dce98\"><h1 style=\"background-color:MediumSeaGreen\" >Only 18 left to go!</h1><img id=\"box\" src=\"img/prizes/duck.png\"></img><img id=\"box\" src=\"img/empty/greenopenbox.png\"></img></div>","key_press":null,"trial_type":"html-keyboard-response","trial_index":35,"time_elapsed":459289,"internal_node_id":"0.0-19.5-1.5"},{"rt":732.3799999976764,"stimulus":"<p>Choose a box,</p>","button_pressed":1,"trial_type":"html-button-response","trial_index":36,"time_elapsed":460023,"internal_node_id":"0.0-19.6-0.6"},{"rate":0.8037288476911632,"trial_type":"html-keyboard-response","trial_index":37,"time_elapsed":460023,"internal_node_id":"0.0-19.6-1.6"},{"rt":null,"stimulus":"<div style=\"background-color:#6dce98\"><h1 style=\"background-color:MediumSeaGreen\" >You won a prize! Well done!</h1><div style=\"background-color:#6dce98\"><h1 style=\"background-color:MediumSeaGreen\" >Only 17 left to go!</h1><img id=\"box\" src=\"img/prizes/choc.png\"></img><img id=\"box\" src=\"img/empty/greenopenbox.png\"></img></div>","key_press":null,"trial_type":"html-keyboard-response","trial_index":37,"time_elapsed":461532,"internal_node_id":"0.0-19.6-1.6"},{"rt":484.88000000000466,"stimulus":"<p>Choose a box,</p>","button_pressed":1,"trial_type":"html-button-response","trial_index":38,"time_elapsed":462018,"internal_node_id":"0.0-19.7-0.7"},{"rate":0.8037288476911632,"trial_type":"html-keyboard-response","trial_index":39,"time_elapsed":462019,"internal_node_id":"0.0-19.7-1.7"},{"rt":null,"stimulus":"<div style=\"background-color:#6dce98\"><h1 style=\"background-color:MediumSeaGreen\" >You won a prize! Well done!</h1><div style=\"background-color:#6dce98\"><h1 style=\"background-color:MediumSeaGreen\" >Only 16 left to go!</h1><img id=\"box\" src=\"img/prizes/ring.png\"></img><img id=\"box\" src=\"img/empty/greenopenbox.png\"></img></div>","key_press":null,"trial_type":"html-keyboard-response","trial_index":39,"time_elapsed":463532,"internal_node_id":"0.0-19.7-1.7"},{"rt":499.27000000025146,"stimulus":"<p>Choose a box,</p>","button_pressed":1,"trial_type":"html-button-response","trial_index":40,"time_elapsed":464033,"internal_node_id":"0.0-19.8-0.8"},{"rate":0.8037288476911632,"trial_type":"html-keyboard-response","trial_index":41,"time_elapsed":464034,"internal_node_id":"0.0-19.8-1.8"},{"rt":null,"stimulus":"<div style=\"background-color:#6dce98\"><h1 style=\"background-color:MediumSeaGreen\" >You won a prize! Well done!</h1><div style=\"background-color:#6dce98\"><h1 style=\"background-color:MediumSeaGreen\" >Only 15 left to go!</h1><img id=\"box\" src=\"img/prizes/beachball.png\"></img><img id=\"box\" src=\"img/empty/greenopenbox.png\"></img></div>","key_press":null,"trial_type":"html-keyboard-response","trial_index":41,"time_elapsed":465536,"internal_node_id":"0.0-19.8-1.8"},{"rt":542.8800000008778,"stimulus":"<p>Choose a box,</p>","button_pressed":1,"trial_type":"html-button-response","trial_index":42,"time_elapsed":466080,"internal_node_id":"0.0-19.9-0.9"},{"rate":0.8037288476911632,"trial_type":"html-keyboard-response","trial_index":43,"time_elapsed":466080,"internal_node_id":"0.0-19.9-1.9"},{"rt":null,"stimulus":"<div style=\"background-color:#ff7157\"><h1 style=\"background-color:Tomato\">Bad luck! There was no prize in the box!</h1><h1 style=\"background-color:Tomato\">Remember, you need to keep going until you have 20 prizes!</h1><img id=\"box\" src=\"img/sad/greenopenboxsadthumb.png\"></img></div>","key_press":null,"trial_type":"html-keyboard-response","trial_index":43,"time_elapsed":467594,"internal_node_id":"0.0-19.9-1.9"},{"rt":921.6999999989639,"stimulus":"<p>Choose a box,</p>","button_pressed":0,"trial_type":"html-button-response","trial_index":44,"time_elapsed":468517,"internal_node_id":"0.0-19.10-0.10"},{"rate":0.6005988871011778,"trial_type":"html-keyboard-response","trial_index":45,"time_elapsed":468517,"internal_node_id":"0.0-19.10-1.10"},{"rt":null,"stimulus":"<div style=\"background-color:#ff7157\"><h1 style=\"background-color:Tomato\">Bad luck! There was no prize in the box!</h1><h1 style=\"background-color:Tomato\">Remember, you need to keep going until you have 20 prizes!</h1><img id=\"box\" src=\"img/sad/blueopenboxsadthumb.png\"></img></div>","key_press":null,"trial_type":"html-keyboard-response","trial_index":45,"time_elapsed":470019,"internal_node_id":"0.0-19.10-1.10"},{"rt":598.6200000006356,"stimulus":"<p>Choose a box,</p>","button_pressed":2,"trial_type":"html-button-response","trial_index":46,"time_elapsed":470619,"internal_node_id":"0.0-19.11-0.11"},{"rate":0.08628973977997913,"trial_type":"html-keyboard-response","trial_index":47,"time_elapsed":470619,"internal_node_id":"0.0-19.11-1.11"},{"rt":null,"stimulus":"<div style=\"background-color:#ff7157\"><h1 style=\"background-color:Tomato\">Bad luck! There was no prize in the box!</h1><h1 style=\"background-color:Tomato\">Remember, you need to keep going until you have 20 prizes!</h1><img id=\"box\" src=\"img/sad/purpleopenboxsadthumb.png\"></img></div>","key_press":null,"trial_type":"html-keyboard-response","trial_index":47,"time_elapsed":472121,"internal_node_id":"0.0-19.11-1.11"},{"rt":761.5599999990081,"stimulus":"<p>Choose a box,</p>","button_pressed":3,"trial_type":"html-button-response","trial_index":48,"time_elapsed":472885,"internal_node_id":"0.0-19.12-0.12"},{"rate":0.21392426075849988,"trial_type":"html-keyboard-response","trial_index":49,"time_elapsed":472885,"internal_node_id":"0.0-19.12-1.12"},{"rt":null,"stimulus":"<div style=\"background-color:#ff7157\"><h1 style=\"background-color:Tomato\">Bad luck! There was no prize in the box!</h1><h1 style=\"background-color:Tomato\">Remember, you need to keep going until you have 20 prizes!</h1><img id=\"box\" src=\"img/sad/redopenboxsadthumb.png\"></img></div>","key_press":null,"trial_type":"html-keyboard-response","trial_index":49,"time_elapsed":474386,"internal_node_id":"0.0-19.12-1.12"},{"rt":571.6749999992317,"stimulus":"<p>Choose a box,</p>","button_pressed":1,"trial_type":"html-button-response","trial_index":50,"time_elapsed":474960,"internal_node_id":"0.0-19.13-0.13"},{"rate":0.8037288476911632,"trial_type":"html-keyboard-response","trial_index":51,"time_elapsed":474960,"internal_node_id":"0.0-19.13-1.13"},{"rt":null,"stimulus":"<div style=\"background-color:#6dce98\"><h1 style=\"background-color:MediumSeaGreen\" >You won a prize! Well done!</h1><div style=\"background-color:#6dce98\"><h1 style=\"background-color:MediumSeaGreen\" >Only 14 left to go!</h1><img id=\"box\" src=\"img/prizes/yoyo.png\"></img><img id=\"box\" src=\"img/empty/greenopenbox.png\"></img></div>","key_press":null,"trial_type":"html-keyboard-response","trial_index":51,"time_elapsed":476475,"internal_node_id":"0.0-19.13-1.13"},{"rt":579.4649999989197,"stimulus":"<p>Choose a box,</p>","button_pressed":1,"trial_type":"html-button-response","trial_index":52,"time_elapsed":477056,"internal_node_id":"0.0-19.14-0.14"},{"rate":0.8037288476911632,"trial_type":"html-keyboard-response","trial_index":53,"time_elapsed":477057,"internal_node_id":"0.0-19.14-1.14"},{"rt":null,"stimulus":"<div style=\"background-color:#6dce98\"><h1 style=\"background-color:MediumSeaGreen\" >You won a prize! Well done!</h1><div style=\"background-color:#6dce98\"><h1 style=\"background-color:MediumSeaGreen\" >Only 13 left to go!</h1><img id=\"box\" src=\"img/prizes/flowers.png\"></img><img id=\"box\" src=\"img/empty/greenopenbox.png\"></img></div>","key_press":null,"trial_type":"html-keyboard-response","trial_index":53,"time_elapsed":478565,"internal_node_id":"0.0-19.14-1.14"},{"rt":575.4450000022189,"stimulus":"<p>Choose a box,</p>","button_pressed":1,"trial_type":"html-button-response","trial_index":54,"time_elapsed":479141,"internal_node_id":"0.0-19.15-0.15"},{"rate":0.8037288476911632,"trial_type":"html-keyboard-response","trial_index":55,"time_elapsed":479142,"internal_node_id":"0.0-19.15-1.15"},{"rt":null,"stimulus":"<div style=\"background-color:#ff7157\"><h1 style=\"background-color:Tomato\">Bad luck! There was no prize in the box!</h1><h1 style=\"background-color:Tomato\">Remember, you need to keep going until you have 20 prizes!</h1><img id=\"box\" src=\"img/sad/greenopenboxsadthumb.png\"></img></div>","key_press":null,"trial_type":"html-keyboard-response","trial_index":55,"time_elapsed":480656,"internal_node_id":"0.0-19.15-1.15"},{"rt":377.4999999986612,"stimulus":"<p>Choose a box,</p>","button_pressed":1,"trial_type":"html-button-response","trial_index":56,"time_elapsed":481035,"internal_node_id":"0.0-19.16-0.16"},{"rate":0.8037288476911632,"trial_type":"html-keyboard-response","trial_index":57,"time_elapsed":481035,"internal_node_id":"0.0-19.16-1.16"},{"rt":null,"stimulus":"<div style=\"background-color:#6dce98\"><h1 style=\"background-color:MediumSeaGreen\" >You won a prize! Well done!</h1><div style=\"background-color:#6dce98\"><h1 style=\"background-color:MediumSeaGreen\" >Only 12 left to go!</h1><img id=\"box\" src=\"img/prizes/bear.png\"></img><img id=\"box\" src=\"img/empty/greenopenbox.png\"></img></div>","key_press":null,"trial_type":"html-keyboard-response","trial_index":57,"time_elapsed":482546,"internal_node_id":"0.0-19.16-1.16"},{"rt":1219.1400000010617,"stimulus":"<p>Choose a box,</p>","button_pressed":1,"trial_type":"html-button-response","trial_index":58,"time_elapsed":483767,"internal_node_id":"0.0-19.17-0.17"},{"rate":0.8037288476911632,"trial_type":"html-keyboard-response","trial_index":59,"time_elapsed":483767,"internal_node_id":"0.0-19.17-1.17"},{"rt":null,"stimulus":"<div style=\"background-color:#6dce98\"><h1 style=\"background-color:MediumSeaGreen\" >You won a prize! Well done!</h1><div style=\"background-color:#6dce98\"><h1 style=\"background-color:MediumSeaGreen\" >Only 11 left to go!</h1><img id=\"box\" src=\"img/prizes/yoyo.png\"></img><img id=\"box\" src=\"img/empty/greenopenbox.png\"></img></div>","key_press":null,"trial_type":"html-keyboard-response","trial_index":59,"time_elapsed":485278,"internal_node_id":"0.0-19.17-1.17"},{"rt":567.1249999977299,"stimulus":"<p>Choose a box,</p>","button_pressed":1,"trial_type":"html-button-response","trial_index":60,"time_elapsed":485847,"internal_node_id":"0.0-19.18-0.18"},{"rate":0.8037288476911632,"trial_type":"html-keyboard-response","trial_index":61,"time_elapsed":485848,"internal_node_id":"0.0-19.18-1.18"},{"rt":null,"stimulus":"<div style=\"background-color:#6dce98\"><h1 style=\"background-color:MediumSeaGreen\" >You won a prize! Well done!</h1><div style=\"background-color:#6dce98\"><h1 style=\"background-color:MediumSeaGreen\" >Only 10 left to go!</h1><img id=\"box\" src=\"img/prizes/flowers.png\"></img><img id=\"box\" src=\"img/empty/greenopenbox.png\"></img></div>","key_press":null,"trial_type":"html-keyboard-response","trial_index":61,"time_elapsed":487357,"internal_node_id":"0.0-19.18-1.18"},{"rt":443.25000000029104,"stimulus":"<p>Choose a box,</p>","button_pressed":1,"trial_type":"html-button-response","trial_index":62,"time_elapsed":487804,"internal_node_id":"0.0-19.19-0.19"},{"rate":0.8037288476911632,"trial_type":"html-keyboard-response","trial_index":63,"time_elapsed":487804,"internal_node_id":"0.0-19.19-1.19"},{"rt":null,"stimulus":"<div style=\"background-color:#6dce98\"><h1 style=\"background-color:MediumSeaGreen\" >You won a prize! Well done!</h1><div style=\"background-color:#6dce98\"><h1 style=\"background-color:MediumSeaGreen\" >Only 9 left to go!</h1><img id=\"box\" src=\"img/prizes/coins.png\"></img><img id=\"box\" src=\"img/empty/greenopenbox.png\"></img></div>","key_press":null,"trial_type":"html-keyboard-response","trial_index":63,"time_elapsed":489311,"internal_node_id":"0.0-19.19-1.19"},{"rt":614.6599999992759,"stimulus":"<p>Choose a box,</p>","button_pressed":1,"trial_type":"html-button-response","trial_index":64,"time_elapsed":489928,"internal_node_id":"0.0-19.20-0.20"},{"rate":0.8037288476911632,"trial_type":"html-keyboard-response","trial_index":65,"time_elapsed":489928,"internal_node_id":"0.0-19.20-1.20"},{"rt":null,"stimulus":"<div style=\"background-color:#6dce98\"><h1 style=\"background-color:MediumSeaGreen\" >You won a prize! Well done!</h1><div style=\"background-color:#6dce98\"><h1 style=\"background-color:MediumSeaGreen\" >Only 8 left to go!</h1><img id=\"box\" src=\"img/prizes/choc.png\"></img><img id=\"box\" src=\"img/empty/greenopenbox.png\"></img></div>","key_press":null,"trial_type":"html-keyboard-response","trial_index":65,"time_elapsed":491438,"internal_node_id":"0.0-19.20-1.20"},{"rt":618.0249999997322,"stimulus":"<p>Choose a box,</p>","button_pressed":1,"trial_type":"html-button-response","trial_index":66,"time_elapsed":492058,"internal_node_id":"0.0-19.21-0.21"},{"rate":0.8037288476911632,"trial_type":"html-keyboard-response","trial_index":67,"time_elapsed":492058,"internal_node_id":"0.0-19.21-1.21"},{"rt":null,"stimulus":"<div style=\"background-color:#ff7157\"><h1 style=\"background-color:Tomato\">Bad luck! There was no prize in the box!</h1><h1 style=\"background-color:Tomato\">Remember, you need to keep going until you have 20 prizes!</h1><img id=\"box\" src=\"img/sad/greenopenboxsadthumb.png\"></img></div>","key_press":null,"trial_type":"html-keyboard-response","trial_index":67,"time_elapsed":493563,"internal_node_id":"0.0-19.21-1.21"},{"rt":506.93499999761116,"stimulus":"<p>Choose a box,</p>","button_pressed":1,"trial_type":"html-button-response","trial_index":68,"time_elapsed":494072,"internal_node_id":"0.0-19.22-0.22"},{"rate":0.8037288476911632,"trial_type":"html-keyboard-response","trial_index":69,"time_elapsed":494072,"internal_node_id":"0.0-19.22-1.22"},{"rt":null,"stimulus":"<div style=\"background-color:#6dce98\"><h1 style=\"background-color:MediumSeaGreen\" >You won a prize! Well done!</h1><div style=\"background-color:#6dce98\"><h1 style=\"background-color:MediumSeaGreen\" >Only 7 left to go!</h1><img id=\"box\" src=\"img/prizes/flowers.png\"></img><img id=\"box\" src=\"img/empty/greenopenbox.png\"></img></div>","key_press":null,"trial_type":"html-keyboard-response","trial_index":69,"time_elapsed":495580,"internal_node_id":"0.0-19.22-1.22"},{"rt":598.6449999982142,"stimulus":"<p>Choose a box,</p>","button_pressed":1,"trial_type":"html-button-response","trial_index":70,"time_elapsed":496181,"internal_node_id":"0.0-19.23-0.23"},{"rate":0.8037288476911632,"trial_type":"html-keyboard-response","trial_index":71,"time_elapsed":496181,"internal_node_id":"0.0-19.23-1.23"},{"rt":null,"stimulus":"<div style=\"background-color:#6dce98\"><h1 style=\"background-color:MediumSeaGreen\" >You won a prize! Well done!</h1><div style=\"background-color:#6dce98\"><h1 style=\"background-color:MediumSeaGreen\" >Only 6 left to go!</h1><img id=\"box\" src=\"img/prizes/yoyo.png\"></img><img id=\"box\" src=\"img/empty/greenopenbox.png\"></img></div>","key_press":null,"trial_type":"html-keyboard-response","trial_index":71,"time_elapsed":497690,"internal_node_id":"0.0-19.23-1.23"},{"rt":598.7449999993551,"stimulus":"<p>Choose a box,</p>","button_pressed":1,"trial_type":"html-button-response","trial_index":72,"time_elapsed":498291,"internal_node_id":"0.0-19.24-0.24"},{"rate":0.8037288476911632,"trial_type":"html-keyboard-response","trial_index":73,"time_elapsed":498291,"internal_node_id":"0.0-19.24-1.24"},{"rt":null,"stimulus":"<div style=\"background-color:#6dce98\"><h1 style=\"background-color:MediumSeaGreen\" >You won a prize! Well done!</h1><div style=\"background-color:#6dce98\"><h1 style=\"background-color:MediumSeaGreen\" >Only 5 left to go!</h1><img id=\"box\" src=\"img/prizes/choc.png\"></img><img id=\"box\" src=\"img/empty/greenopenbox.png\"></img></div>","key_press":null,"trial_type":"html-keyboard-response","trial_index":73,"time_elapsed":499807,"internal_node_id":"0.0-19.24-1.24"},{"rt":539.4100000011967,"stimulus":"<p>Choose a box,</p>","button_pressed":1,"trial_type":"html-button-response","trial_index":74,"time_elapsed":500348,"internal_node_id":"0.0-19.25-0.25"},{"rate":0.8037288476911632,"trial_type":"html-keyboard-response","trial_index":75,"time_elapsed":500348,"internal_node_id":"0.0-19.25-1.25"},{"rt":null,"stimulus":"<div style=\"background-color:#ff7157\"><h1 style=\"background-color:Tomato\">Bad luck! There was no prize in the box!</h1><h1 style=\"background-color:Tomato\">Remember, you need to keep going until you have 20 prizes!</h1><img id=\"box\" src=\"img/sad/greenopenboxsadthumb.png\"></img></div>","key_press":null,"trial_type":"html-keyboard-response","trial_index":75,"time_elapsed":501854,"internal_node_id":"0.0-19.25-1.25"},{"rt":462.5049999994808,"stimulus":"<p>Choose a box,</p>","button_pressed":1,"trial_type":"html-button-response","trial_index":76,"time_elapsed":502318,"internal_node_id":"0.0-19.26-0.26"},{"rate":0.8037288476911632,"trial_type":"html-keyboard-response","trial_index":77,"time_elapsed":502319,"internal_node_id":"0.0-19.26-1.26"},{"rt":null,"stimulus":"<div style=\"background-color:#6dce98\"><h1 style=\"background-color:MediumSeaGreen\" >You won a prize! Well done!</h1><div style=\"background-color:#6dce98\"><h1 style=\"background-color:MediumSeaGreen\" >Only 4 left to go!</h1><img id=\"box\" src=\"img/prizes/ring.png\"></img><img id=\"box\" src=\"img/empty/greenopenbox.png\"></img></div>","key_press":null,"trial_type":"html-keyboard-response","trial_index":77,"time_elapsed":503821,"internal_node_id":"0.0-19.26-1.26"},{"rt":538.8500000008498,"stimulus":"<p>Choose a box,</p>","button_pressed":1,"trial_type":"html-button-response","trial_index":78,"time_elapsed":504362,"internal_node_id":"0.0-19.27-0.27"},{"rate":0.8037288476911632,"trial_type":"html-keyboard-response","trial_index":79,"time_elapsed":504362,"internal_node_id":"0.0-19.27-1.27"},{"rt":null,"stimulus":"<div style=\"background-color:#6dce98\"><h1 style=\"background-color:MediumSeaGreen\" >You won a prize! Well done!</h1><div style=\"background-color:#6dce98\"><h1 style=\"background-color:MediumSeaGreen\" >Only 3 left to go!</h1><img id=\"box\" src=\"img/prizes/choc.png\"></img><img id=\"box\" src=\"img/empty/greenopenbox.png\"></img></div>","key_press":null,"trial_type":"html-keyboard-response","trial_index":79,"time_elapsed":505865,"internal_node_id":"0.0-19.27-1.27"},{"rt":369.0999999999185,"stimulus":"<p>Choose a box,</p>","button_pressed":1,"trial_type":"html-button-response","trial_index":80,"time_elapsed":506236,"internal_node_id":"0.0-19.28-0.28"},{"rate":0.8037288476911632,"trial_type":"html-keyboard-response","trial_index":81,"time_elapsed":506236,"internal_node_id":"0.0-19.28-1.28"},{"rt":null,"stimulus":"<div style=\"background-color:#ff7157\"><h1 style=\"background-color:Tomato\">Bad luck! There was no prize in the box!</h1><h1 style=\"background-color:Tomato\">Remember, you need to keep going until you have 20 prizes!</h1><img id=\"box\" src=\"img/sad/greenopenboxsadthumb.png\"></img></div>","key_press":null,"trial_type":"html-keyboard-response","trial_index":81,"time_elapsed":507739,"internal_node_id":"0.0-19.28-1.28"},{"rt":458.8550000007963,"stimulus":"<p>Choose a box,</p>","button_pressed":1,"trial_type":"html-button-response","trial_index":82,"time_elapsed":508200,"internal_node_id":"0.0-19.29-0.29"},{"rate":0.8037288476911632,"trial_type":"html-keyboard-response","trial_index":83,"time_elapsed":508200,"internal_node_id":"0.0-19.29-1.29"},{"rt":null,"stimulus":"<div style=\"background-color:#ff7157\"><h1 style=\"background-color:Tomato\">Bad luck! There was no prize in the box!</h1><h1 style=\"background-color:Tomato\">Remember, you need to keep going until you have 20 prizes!</h1><img id=\"box\" src=\"img/sad/greenopenboxsadthumb.png\"></img></div>","key_press":null,"trial_type":"html-keyboard-response","trial_index":83,"time_elapsed":509704,"internal_node_id":"0.0-19.29-1.29"},{"rt":492.04500000271946,"stimulus":"<p>Choose a box,</p>","button_pressed":1,"trial_type":"html-button-response","trial_index":84,"time_elapsed":510198,"internal_node_id":"0.0-19.30-0.30"},{"rate":0.8037288476911632,"trial_type":"html-keyboard-response","trial_index":85,"time_elapsed":510198,"internal_node_id":"0.0-19.30-1.30"},{"rt":null,"stimulus":"<div style=\"background-color:#6dce98\"><h1 style=\"background-color:MediumSeaGreen\" >You won a prize! Well done!</h1><div style=\"background-color:#6dce98\"><h1 style=\"background-color:MediumSeaGreen\" >Only 2 left to go!</h1><img id=\"box\" src=\"img/prizes/ring.png\"></img><img id=\"box\" src=\"img/empty/greenopenbox.png\"></img></div>","key_press":null,"trial_type":"html-keyboard-response","trial_index":85,"time_elapsed":511702,"internal_node_id":"0.0-19.30-1.30"},{"rt":617.999999998603,"stimulus":"<p>Choose a box,</p>","button_pressed":1,"trial_type":"html-button-response","trial_index":86,"time_elapsed":512322,"internal_node_id":"0.0-19.31-0.31"},{"rate":0.8037288476911632,"trial_type":"html-keyboard-response","trial_index":87,"time_elapsed":512322,"internal_node_id":"0.0-19.31-1.31"},{"rt":null,"stimulus":"<div style=\"background-color:#6dce98\"><h1 style=\"background-color:MediumSeaGreen\" >You won a prize! Well done!</h1><div style=\"background-color:#6dce98\"><h1 style=\"background-color:MediumSeaGreen\" >Only 1 left to go!</h1><img id=\"box\" src=\"img/prizes/duck.png\"></img><img id=\"box\" src=\"img/empty/greenopenbox.png\"></img></div>","key_press":null,"trial_type":"html-keyboard-response","trial_index":87,"time_elapsed":513833,"internal_node_id":"0.0-19.31-1.31"},{"rt":512.2300000002724,"stimulus":"<p>Choose a box,</p>","button_pressed":1,"trial_type":"html-button-response","trial_index":88,"time_elapsed":514347,"internal_node_id":"0.0-19.32-0.32"},{"rate":0.8037288476911632,"trial_type":"html-keyboard-response","trial_index":89,"time_elapsed":514348,"internal_node_id":"0.0-19.32-1.32"},{"rt":null,"stimulus":"<div style=\"background-color:#6dce98\"><h1 style=\"background-color:MediumSeaGreen\" >You won a prize! Well done!</h1><div style=\"background-color:#6dce98\"><h1 style=\"background-color:MediumSeaGreen\" >Only 0 left to go!</h1><img id=\"box\" src=\"img/prizes/ring.png\"></img><img id=\"box\" src=\"img/empty/greenopenbox.png\"></img></div>","key_press":null,"trial_type":"html-keyboard-response","trial_index":89,"time_elapsed":515866,"internal_node_id":"0.0-19.32-1.32"},{"rt":67212.26500000188,"responses":"{\"Q0\":\"It was interesting, I'd like to read the study that will come out of it.\",\"Q1\":\"I noticed that the red gift kept giving out prizes, but before that I checked each and every gift. Then I decided to try the green one again cause I thought the color would bring me luck.\"}","trial_type":"survey-text","trial_index":90,"time_elapsed":583089,"internal_node_id":"0.0-20.0"}]