[{"view_history":"[{\"page_index\":0,\"viewing_time\":70994.33000000136},{\"page_index\":1,\"viewing_time\":39697.534999999334},{\"page_index\":2,\"viewing_time\":29969.114999999874},{\"page_index\":3,\"viewing_time\":27420.140000001993},{\"page_index\":4,\"viewing_time\":17659.874999997555},{\"page_index\":5,\"viewing_time\":24428.015000001324}]","rt":210169.73500000313,"trial_type":"instructions","trial_index":0,"time_elapsed":210171,"internal_node_id":"0.0-0.0"},{"rt":20050.395000002027,"responses":"{\"Q0\":\"Yes\",\"Q1\":\"Yes\",\"Q2\":\"Yes\"}","question_order":"[0,1,2]","trial_type":"survey-multi-choice","trial_index":1,"time_elapsed":230223,"internal_node_id":"0.0-1.0-0.0"},{"rt":34093.37000000235,"responses":"{\"Q0\":\"Yes\",\"Q1\":\"No\",\"Q2\":\"No\"}","question_order":"[0,1,2]","trial_type":"survey-multi-choice","trial_index":2,"time_elapsed":264318,"internal_node_id":"0.0-2.0-0.0"},{"rt":7711.670000000624,"responses":"{\"Q0\":\"Yes\",\"Q1\":\"Yes\",\"Q2\":\"Yes\"}","question_order":"[0,1,2]","trial_type":"survey-multi-choice","trial_index":3,"time_elapsed":278935,"internal_node_id":"0.0-2.1-0.1"},{"rt":4147.179999999935,"responses":"{\"Q0\":\"5f067ced3a4d5d1e5aa73ee3\"}","trial_type":"survey-text","trial_index":4,"time_elapsed":283085,"internal_node_id":"0.0-3.0"},{"rt":2641.4700000023004,"responses":"{\"Q0\":\"Male\",\"Q1\":\"18-25\"}","question_order":"[0,1]","trial_type":"survey-multi-choice","trial_index":5,"time_elapsed":285727,"internal_node_id":"0.0-4.0"},{"rt":17640.565000001516,"responses":"{\"Q0\":\"I do not take\"}","trial_type":"survey-text","trial_index":6,"time_elapsed":303370,"internal_node_id":"0.0-5.0"},{"view_history":"[{\"page_index\":0,\"viewing_time\":11730.21499999956}]","rt":11730.439999999362,"trial_type":"instructions","trial_index":7,"time_elapsed":315101,"internal_node_id":"0.0-6.0"},{"rt":65204.39500000072,"responses":"{\"Interested\":2,\"Distressed\":1,\"Excited\":3,\"Upset\":1}","question_order":"[0,1,2,3]","trial_type":"survey-likert","trial_index":8,"time_elapsed":380308,"internal_node_id":"0.0-7.0"},{"rt":17738.194999998086,"responses":"{\"Strong\":2,\"Guilty\":0,\"Scared\":0,\"Hostile\":0}","question_order":"[0,1,2,3]","trial_type":"survey-likert","trial_index":9,"time_elapsed":398046,"internal_node_id":"0.0-8.0"},{"rt":39321.43500000163,"responses":"{\"Enthusiastic\":3,\"Proud\":2,\"Irritable\":1,\"Alert\":0}","question_order":"[0,1,2,3]","trial_type":"survey-likert","trial_index":10,"time_elapsed":437369,"internal_node_id":"0.0-9.0"},{"rt":17968.06999999896,"responses":"{\"Ashamed\":1,\"Inspired\":3,\"Nervous\":1,\"Determined\":1}","question_order":"[0,1,2,3]","trial_type":"survey-likert","trial_index":11,"time_elapsed":455338,"internal_node_id":"0.0-10.0"},{"rt":18641.80000000127,"responses":"{\"Attentive\":3,\"Jittery\":0,\"Active\":1,\"Afraid\":0}","question_order":"[0,1,2,3]","trial_type":"survey-likert","trial_index":12,"time_elapsed":473982,"internal_node_id":"0.0-11.0"},{"rt":40998.554999998305,"responses":"{\"Q0\":2,\"Q1\":1,\"Q2\":1,\"Q3\":3}","question_order":"[0,1,2,3]","trial_type":"survey-likert","trial_index":13,"time_elapsed":514983,"internal_node_id":"0.0-12.0"},{"rt":41006.7699999999,"responses":"{\"Q0\":2,\"Q1\":0,\"Q2\":0,\"Q3\":0}","question_order":"[0,1,2,3]","trial_type":"survey-likert","trial_index":14,"time_elapsed":555991,"internal_node_id":"0.0-13.0"},{"rt":37230.96000000078,"responses":"{\"Q0\":0,\"Q1\":0,\"Q2\":1,\"Q3\":1}","question_order":"[0,1,2,3]","trial_type":"survey-likert","trial_index":15,"time_elapsed":593223,"internal_node_id":"0.0-14.0"},{"rt":16535.180000002612,"responses":"{\"Q0\":0,\"Q1\":0,\"Q2\":0}","question_order":"[0,1,2]","trial_type":"survey-likert","trial_index":16,"time_elapsed":609759,"internal_node_id":"0.0-15.0"},{"view_history":"[{\"page_index\":0,\"viewing_time\":7732.804999999702},{\"page_index\":1,\"viewing_time\":15277.42500000028},{\"page_index\":2,\"viewing_time\":9708.98999999906}]","rt":32719.819999998435,"trial_type":"instructions","trial_index":17,"time_elapsed":642481,"internal_node_id":"0.0-16.0"},{"rt":1617.389999999432,"stimulus":"<p>Choose a box,</p>","button_pressed":2,"trial_type":"html-button-response","trial_index":18,"time_elapsed":644100,"internal_node_id":"0.0-17.0-0.0"},{"rate":0.4821558354299729,"trial_type":"html-keyboard-response","trial_index":19,"time_elapsed":644101,"internal_node_id":"0.0-17.0-1.0"},{"rt":null,"stimulus":"<div style=\"background-color:#ff7157\"><h1 style=\"background-color:Tomato\">Bad luck! There was no prize in the box!</h1><h1 style=\"background-color:Tomato\">Remember, you need to keep going until you have 20 prizes!</h1><img id=\"box\" src=\"img/sad/purpleopenboxsadthumb.png\"></img></div>","key_press":null,"trial_type":"html-keyboard-response","trial_index":19,"time_elapsed":645602,"internal_node_id":"0.0-17.0-1.0"},{"rt":804.1099999973085,"stimulus":"<p>Choose a box,</p>","button_pressed":1,"trial_type":"html-button-response","trial_index":20,"time_elapsed":646407,"internal_node_id":"0.0-17.0-0.1"},{"rate":0.26729063824820476,"trial_type":"html-keyboard-response","trial_index":21,"time_elapsed":646407,"internal_node_id":"0.0-17.0-1.1"},{"rt":null,"stimulus":"<div style=\"background-color:#ff7157\"><h1 style=\"background-color:Tomato\">Bad luck! There was no prize in the box!</h1><h1 style=\"background-color:Tomato\">Remember, you need to keep going until you have 20 prizes!</h1><img id=\"box\" src=\"img/sad/greenopenboxsadthumb.png\"></img></div>","key_press":null,"trial_type":"html-keyboard-response","trial_index":21,"time_elapsed":647909,"internal_node_id":"0.0-17.0-1.1"},{"rt":679.645000000135,"stimulus":"<p>Choose a box,</p>","button_pressed":0,"trial_type":"html-button-response","trial_index":22,"time_elapsed":648589,"internal_node_id":"0.0-17.0-0.2"},{"rate":0.9481876297324373,"trial_type":"html-keyboard-response","trial_index":23,"time_elapsed":648589,"internal_node_id":"0.0-17.0-1.2"},{"rt":null,"stimulus":"<div style=\"background-color:#6dce98\"><h1 style=\"background-color:MediumSeaGreen\" >You won a prize! Well done!</h1><div style=\"background-color:#6dce98\"><h1 style=\"background-color:MediumSeaGreen\" >Only 19 left to go!</h1><img id=\"box\" src=\"img/prizes/coins.png\"></img><img id=\"box\" src=\"img/empty/blueopenbox.png\"></img></div>","key_press":null,"trial_type":"html-keyboard-response","trial_index":23,"time_elapsed":650091,"internal_node_id":"0.0-17.0-1.2"},{"view_history":"[{\"page_index\":0,\"viewing_time\":3801.7499999987194}]","rt":3801.9899999998743,"trial_type":"instructions","trial_index":24,"time_elapsed":653893,"internal_node_id":"0.0-18.0"},{"rt":687.8849999994272,"stimulus":"<p>Choose a box,</p>","button_pressed":3,"trial_type":"html-button-response","trial_index":25,"time_elapsed":654583,"internal_node_id":"0.0-19.0-0.0"},{"rate":0.7415333937585274,"trial_type":"html-keyboard-response","trial_index":26,"time_elapsed":654583,"internal_node_id":"0.0-19.0-1.0"},{"rt":null,"stimulus":"<div style=\"background-color:#6dce98\"><h1 style=\"background-color:MediumSeaGreen\" >You won a prize! Well done!</h1><div style=\"background-color:#6dce98\"><h1 style=\"background-color:MediumSeaGreen\" >Only 19 left to go!</h1><img id=\"box\" src=\"img/prizes/flowers.png\"></img><img id=\"box\" src=\"img/empty/redopenbox.png\"></img></div>","key_press":null,"trial_type":"html-keyboard-response","trial_index":26,"time_elapsed":656084,"internal_node_id":"0.0-19.0-1.0"},{"rt":1059.6000000004424,"stimulus":"<p>Choose a box,</p>","button_pressed":1,"trial_type":"html-button-response","trial_index":27,"time_elapsed":657145,"internal_node_id":"0.0-19.1-0.1"},{"rate":0.6108379474987261,"trial_type":"html-keyboard-response","trial_index":28,"time_elapsed":657145,"internal_node_id":"0.0-19.1-1.1"},{"rt":null,"stimulus":"<div style=\"background-color:#6dce98\"><h1 style=\"background-color:MediumSeaGreen\" >You won a prize! Well done!</h1><div style=\"background-color:#6dce98\"><h1 style=\"background-color:MediumSeaGreen\" >Only 18 left to go!</h1><img id=\"box\" src=\"img/prizes/ring.png\"></img><img id=\"box\" src=\"img/empty/greenopenbox.png\"></img></div>","key_press":null,"trial_type":"html-keyboard-response","trial_index":28,"time_elapsed":658646,"internal_node_id":"0.0-19.1-1.1"},{"rt":1364.7649999983842,"stimulus":"<p>Choose a box,</p>","button_pressed":2,"trial_type":"html-button-response","trial_index":29,"time_elapsed":660011,"internal_node_id":"0.0-19.2-0.2"},{"rate":0.2950097985264275,"trial_type":"html-keyboard-response","trial_index":30,"time_elapsed":660012,"internal_node_id":"0.0-19.2-1.2"},{"rt":null,"stimulus":"<div style=\"background-color:#6dce98\"><h1 style=\"background-color:MediumSeaGreen\" >You won a prize! Well done!</h1><div style=\"background-color:#6dce98\"><h1 style=\"background-color:MediumSeaGreen\" >Only 17 left to go!</h1><img id=\"box\" src=\"img/prizes/ring.png\"></img><img id=\"box\" src=\"img/empty/purpleopenbox.png\"></img></div>","key_press":null,"trial_type":"html-keyboard-response","trial_index":30,"time_elapsed":661513,"internal_node_id":"0.0-19.2-1.2"},{"rt":1459.8499999992782,"stimulus":"<p>Choose a box,</p>","button_pressed":0,"trial_type":"html-button-response","trial_index":31,"time_elapsed":662974,"internal_node_id":"0.0-19.3-0.3"},{"rate":0.1752908961763035,"trial_type":"html-keyboard-response","trial_index":32,"time_elapsed":662974,"internal_node_id":"0.0-19.3-1.3"},{"rt":null,"stimulus":"<div style=\"background-color:#6dce98\"><h1 style=\"background-color:MediumSeaGreen\" >You won a prize! Well done!</h1><div style=\"background-color:#6dce98\"><h1 style=\"background-color:MediumSeaGreen\" >Only 16 left to go!</h1><img id=\"box\" src=\"img/prizes/coins.png\"></img><img id=\"box\" src=\"img/empty/blueopenbox.png\"></img></div>","key_press":null,"trial_type":"html-keyboard-response","trial_index":32,"time_elapsed":664475,"internal_node_id":"0.0-19.3-1.3"},{"rt":715.8500000005588,"stimulus":"<p>Choose a box,</p>","button_pressed":3,"trial_type":"html-button-response","trial_index":33,"time_elapsed":665192,"internal_node_id":"0.0-19.4-0.4"},{"rate":0.7415333937585274,"trial_type":"html-keyboard-response","trial_index":34,"time_elapsed":665192,"internal_node_id":"0.0-19.4-1.4"},{"rt":null,"stimulus":"<div style=\"background-color:#6dce98\"><h1 style=\"background-color:MediumSeaGreen\" >You won a prize! Well done!</h1><div style=\"background-color:#6dce98\"><h1 style=\"background-color:MediumSeaGreen\" >Only 15 left to go!</h1><img id=\"box\" src=\"img/prizes/beachball.png\"></img><img id=\"box\" src=\"img/empty/redopenbox.png\"></img></div>","key_press":null,"trial_type":"html-keyboard-response","trial_index":34,"time_elapsed":666693,"internal_node_id":"0.0-19.4-1.4"},{"rt":959.9449999986682,"stimulus":"<p>Choose a box,</p>","button_pressed":2,"trial_type":"html-button-response","trial_index":35,"time_elapsed":667654,"internal_node_id":"0.0-19.5-0.5"},{"rate":0.2950097985264275,"trial_type":"html-keyboard-response","trial_index":36,"time_elapsed":667654,"internal_node_id":"0.0-19.5-1.5"},{"rt":null,"stimulus":"<div style=\"background-color:#ff7157\"><h1 style=\"background-color:Tomato\">Bad luck! There was no prize in the box!</h1><h1 style=\"background-color:Tomato\">Remember, you need to keep going until you have 20 prizes!</h1><img id=\"box\" src=\"img/sad/purpleopenboxsadthumb.png\"></img></div>","key_press":null,"trial_type":"html-keyboard-response","trial_index":36,"time_elapsed":669156,"internal_node_id":"0.0-19.5-1.5"},{"rt":1150.069999999716,"stimulus":"<p>Choose a box,</p>","button_pressed":1,"trial_type":"html-button-response","trial_index":37,"time_elapsed":670307,"internal_node_id":"0.0-19.6-0.6"},{"rate":0.6108379474987261,"trial_type":"html-keyboard-response","trial_index":38,"time_elapsed":670307,"internal_node_id":"0.0-19.6-1.6"},{"rt":null,"stimulus":"<div style=\"background-color:#ff7157\"><h1 style=\"background-color:Tomato\">Bad luck! There was no prize in the box!</h1><h1 style=\"background-color:Tomato\">Remember, you need to keep going until you have 20 prizes!</h1><img id=\"box\" src=\"img/sad/greenopenboxsadthumb.png\"></img></div>","key_press":null,"trial_type":"html-keyboard-response","trial_index":38,"time_elapsed":671809,"internal_node_id":"0.0-19.6-1.6"},{"rt":703.959999998915,"stimulus":"<p>Choose a box,</p>","button_pressed":0,"trial_type":"html-button-response","trial_index":39,"time_elapsed":672514,"internal_node_id":"0.0-19.7-0.7"},{"rate":0.1752908961763035,"trial_type":"html-keyboard-response","trial_index":40,"time_elapsed":672514,"internal_node_id":"0.0-19.7-1.7"},{"rt":null,"stimulus":"<div style=\"background-color:#ff7157\"><h1 style=\"background-color:Tomato\">Bad luck! There was no prize in the box!</h1><h1 style=\"background-color:Tomato\">Remember, you need to keep going until you have 20 prizes!</h1><img id=\"box\" src=\"img/sad/blueopenboxsadthumb.png\"></img></div>","key_press":null,"trial_type":"html-keyboard-response","trial_index":40,"time_elapsed":674014,"internal_node_id":"0.0-19.7-1.7"},{"rt":480.75500000058673,"stimulus":"<p>Choose a box,</p>","button_pressed":2,"trial_type":"html-button-response","trial_index":41,"time_elapsed":674496,"internal_node_id":"0.0-19.8-0.8"},{"rate":0.2950097985264275,"trial_type":"html-keyboard-response","trial_index":42,"time_elapsed":674496,"internal_node_id":"0.0-19.8-1.8"},{"rt":null,"stimulus":"<div style=\"background-color:#6dce98\"><h1 style=\"background-color:MediumSeaGreen\" >You won a prize! Well done!</h1><div style=\"background-color:#6dce98\"><h1 style=\"background-color:MediumSeaGreen\" >Only 14 left to go!</h1><img id=\"box\" src=\"img/prizes/choc.png\"></img><img id=\"box\" src=\"img/empty/purpleopenbox.png\"></img></div>","key_press":null,"trial_type":"html-keyboard-response","trial_index":42,"time_elapsed":675998,"internal_node_id":"0.0-19.8-1.8"},{"rt":366.0349999992177,"stimulus":"<p>Choose a box,</p>","button_pressed":2,"trial_type":"html-button-response","trial_index":43,"time_elapsed":676365,"internal_node_id":"0.0-19.9-0.9"},{"rate":0.2950097985264275,"trial_type":"html-keyboard-response","trial_index":44,"time_elapsed":676365,"internal_node_id":"0.0-19.9-1.9"},{"rt":null,"stimulus":"<div style=\"background-color:#ff7157\"><h1 style=\"background-color:Tomato\">Bad luck! There was no prize in the box!</h1><h1 style=\"background-color:Tomato\">Remember, you need to keep going until you have 20 prizes!</h1><img id=\"box\" src=\"img/sad/purpleopenboxsadthumb.png\"></img></div>","key_press":null,"trial_type":"html-keyboard-response","trial_index":44,"time_elapsed":677866,"internal_node_id":"0.0-19.9-1.9"},{"rt":341.00500000210013,"stimulus":"<p>Choose a box,</p>","button_pressed":3,"trial_type":"html-button-response","trial_index":45,"time_elapsed":678208,"internal_node_id":"0.0-19.10-0.10"},{"rate":0.7415333937585274,"trial_type":"html-keyboard-response","trial_index":46,"time_elapsed":678208,"internal_node_id":"0.0-19.10-1.10"},{"rt":null,"stimulus":"<div style=\"background-color:#6dce98\"><h1 style=\"background-color:MediumSeaGreen\" >You won a prize! Well done!</h1><div style=\"background-color:#6dce98\"><h1 style=\"background-color:MediumSeaGreen\" >Only 13 left to go!</h1><img id=\"box\" src=\"img/prizes/choc.png\"></img><img id=\"box\" src=\"img/empty/redopenbox.png\"></img></div>","key_press":null,"trial_type":"html-keyboard-response","trial_index":46,"time_elapsed":679710,"internal_node_id":"0.0-19.10-1.10"},{"rt":305.08999999798834,"stimulus":"<p>Choose a box,</p>","button_pressed":0,"trial_type":"html-button-response","trial_index":47,"time_elapsed":680016,"internal_node_id":"0.0-19.11-0.11"},{"rate":0.1752908961763035,"trial_type":"html-keyboard-response","trial_index":48,"time_elapsed":680016,"internal_node_id":"0.0-19.11-1.11"},{"rt":null,"stimulus":"<div style=\"background-color:#ff7157\"><h1 style=\"background-color:Tomato\">Bad luck! There was no prize in the box!</h1><h1 style=\"background-color:Tomato\">Remember, you need to keep going until you have 20 prizes!</h1><img id=\"box\" src=\"img/sad/blueopenboxsadthumb.png\"></img></div>","key_press":null,"trial_type":"html-keyboard-response","trial_index":48,"time_elapsed":681517,"internal_node_id":"0.0-19.11-1.11"},{"rt":296.05499999888707,"stimulus":"<p>Choose a box,</p>","button_pressed":2,"trial_type":"html-button-response","trial_index":49,"time_elapsed":681814,"internal_node_id":"0.0-19.12-0.12"},{"rate":0.2950097985264275,"trial_type":"html-keyboard-response","trial_index":50,"time_elapsed":681814,"internal_node_id":"0.0-19.12-1.12"},{"rt":null,"stimulus":"<div style=\"background-color:#6dce98\"><h1 style=\"background-color:MediumSeaGreen\" >You won a prize! Well done!</h1><div style=\"background-color:#6dce98\"><h1 style=\"background-color:MediumSeaGreen\" >Only 12 left to go!</h1><img id=\"box\" src=\"img/prizes/lolipop.png\"></img><img id=\"box\" src=\"img/empty/purpleopenbox.png\"></img></div>","key_press":null,"trial_type":"html-keyboard-response","trial_index":50,"time_elapsed":683316,"internal_node_id":"0.0-19.12-1.12"},{"rt":370.3300000015879,"stimulus":"<p>Choose a box,</p>","button_pressed":1,"trial_type":"html-button-response","trial_index":51,"time_elapsed":683687,"internal_node_id":"0.0-19.13-0.13"},{"rate":0.6108379474987261,"trial_type":"html-keyboard-response","trial_index":52,"time_elapsed":683687,"internal_node_id":"0.0-19.13-1.13"},{"rt":null,"stimulus":"<div style=\"background-color:#6dce98\"><h1 style=\"background-color:MediumSeaGreen\" >You won a prize! Well done!</h1><div style=\"background-color:#6dce98\"><h1 style=\"background-color:MediumSeaGreen\" >Only 11 left to go!</h1><img id=\"box\" src=\"img/prizes/bear.png\"></img><img id=\"box\" src=\"img/empty/greenopenbox.png\"></img></div>","key_press":null,"trial_type":"html-keyboard-response","trial_index":52,"time_elapsed":685189,"internal_node_id":"0.0-19.13-1.13"},{"rt":449.7699999992037,"stimulus":"<p>Choose a box,</p>","button_pressed":3,"trial_type":"html-button-response","trial_index":53,"time_elapsed":685639,"internal_node_id":"0.0-19.14-0.14"},{"rate":0.7415333937585274,"trial_type":"html-keyboard-response","trial_index":54,"time_elapsed":685640,"internal_node_id":"0.0-19.14-1.14"},{"rt":null,"stimulus":"<div style=\"background-color:#ff7157\"><h1 style=\"background-color:Tomato\">Bad luck! There was no prize in the box!</h1><h1 style=\"background-color:Tomato\">Remember, you need to keep going until you have 20 prizes!</h1><img id=\"box\" src=\"img/sad/redopenboxsadthumb.png\"></img></div>","key_press":null,"trial_type":"html-keyboard-response","trial_index":54,"time_elapsed":687141,"internal_node_id":"0.0-19.14-1.14"},{"rt":675.035000000149,"stimulus":"<p>Choose a box,</p>","button_pressed":2,"trial_type":"html-button-response","trial_index":55,"time_elapsed":687817,"internal_node_id":"0.0-19.15-0.15"},{"rate":0.2950097985264275,"trial_type":"html-keyboard-response","trial_index":56,"time_elapsed":687817,"internal_node_id":"0.0-19.15-1.15"},{"rt":null,"stimulus":"<div style=\"background-color:#ff7157\"><h1 style=\"background-color:Tomato\">Bad luck! There was no prize in the box!</h1><h1 style=\"background-color:Tomato\">Remember, you need to keep going until you have 20 prizes!</h1><img id=\"box\" src=\"img/sad/purpleopenboxsadthumb.png\"></img></div>","key_press":null,"trial_type":"html-keyboard-response","trial_index":56,"time_elapsed":689318,"internal_node_id":"0.0-19.15-1.15"},{"rt":359.88000000000466,"stimulus":"<p>Choose a box,</p>","button_pressed":0,"trial_type":"html-button-response","trial_index":57,"time_elapsed":689679,"internal_node_id":"0.0-19.16-0.16"},{"rate":0.1752908961763035,"trial_type":"html-keyboard-response","trial_index":58,"time_elapsed":689679,"internal_node_id":"0.0-19.16-1.16"},{"rt":null,"stimulus":"<div style=\"background-color:#ff7157\"><h1 style=\"background-color:Tomato\">Bad luck! There was no prize in the box!</h1><h1 style=\"background-color:Tomato\">Remember, you need to keep going until you have 20 prizes!</h1><img id=\"box\" src=\"img/sad/blueopenboxsadthumb.png\"></img></div>","key_press":null,"trial_type":"html-keyboard-response","trial_index":58,"time_elapsed":691181,"internal_node_id":"0.0-19.16-1.16"},{"rt":381.2599999982631,"stimulus":"<p>Choose a box,</p>","button_pressed":1,"trial_type":"html-button-response","trial_index":59,"time_elapsed":691563,"internal_node_id":"0.0-19.17-0.17"},{"rate":0.6108379474987261,"trial_type":"html-keyboard-response","trial_index":60,"time_elapsed":691563,"internal_node_id":"0.0-19.17-1.17"},{"rt":null,"stimulus":"<div style=\"background-color:#6dce98\"><h1 style=\"background-color:MediumSeaGreen\" >You won a prize! Well done!</h1><div style=\"background-color:#6dce98\"><h1 style=\"background-color:MediumSeaGreen\" >Only 10 left to go!</h1><img id=\"box\" src=\"img/prizes/ring.png\"></img><img id=\"box\" src=\"img/empty/greenopenbox.png\"></img></div>","key_press":null,"trial_type":"html-keyboard-response","trial_index":60,"time_elapsed":693065,"internal_node_id":"0.0-19.17-1.17"},{"rt":389.6099999983562,"stimulus":"<p>Choose a box,</p>","button_pressed":2,"trial_type":"html-button-response","trial_index":61,"time_elapsed":693455,"internal_node_id":"0.0-19.18-0.18"},{"rate":0.2950097985264275,"trial_type":"html-keyboard-response","trial_index":62,"time_elapsed":693455,"internal_node_id":"0.0-19.18-1.18"},{"rt":null,"stimulus":"<div style=\"background-color:#ff7157\"><h1 style=\"background-color:Tomato\">Bad luck! There was no prize in the box!</h1><h1 style=\"background-color:Tomato\">Remember, you need to keep going until you have 20 prizes!</h1><img id=\"box\" src=\"img/sad/purpleopenboxsadthumb.png\"></img></div>","key_press":null,"trial_type":"html-keyboard-response","trial_index":62,"time_elapsed":694957,"internal_node_id":"0.0-19.18-1.18"},{"rt":135.7349999997532,"stimulus":"<p>Choose a box,</p>","button_pressed":1,"trial_type":"html-button-response","trial_index":63,"time_elapsed":695093,"internal_node_id":"0.0-19.19-0.19"},{"rate":0.6108379474987261,"trial_type":"html-keyboard-response","trial_index":64,"time_elapsed":695093,"internal_node_id":"0.0-19.19-1.19"},{"rt":null,"stimulus":"<div style=\"background-color:#6dce98\"><h1 style=\"background-color:MediumSeaGreen\" >You won a prize! Well done!</h1><div style=\"background-color:#6dce98\"><h1 style=\"background-color:MediumSeaGreen\" >Only 9 left to go!</h1><img id=\"box\" src=\"img/prizes/yoyo.png\"></img><img id=\"box\" src=\"img/empty/greenopenbox.png\"></img></div>","key_press":null,"trial_type":"html-keyboard-response","trial_index":64,"time_elapsed":696595,"internal_node_id":"0.0-19.19-1.19"},{"rt":580.1099999990547,"stimulus":"<p>Choose a box,</p>","button_pressed":3,"trial_type":"html-button-response","trial_index":65,"time_elapsed":697177,"internal_node_id":"0.0-19.20-0.20"},{"rate":0.7415333937585274,"trial_type":"html-keyboard-response","trial_index":66,"time_elapsed":697177,"internal_node_id":"0.0-19.20-1.20"},{"rt":null,"stimulus":"<div style=\"background-color:#ff7157\"><h1 style=\"background-color:Tomato\">Bad luck! There was no prize in the box!</h1><h1 style=\"background-color:Tomato\">Remember, you need to keep going until you have 20 prizes!</h1><img id=\"box\" src=\"img/sad/redopenboxsadthumb.png\"></img></div>","key_press":null,"trial_type":"html-keyboard-response","trial_index":66,"time_elapsed":698677,"internal_node_id":"0.0-19.20-1.20"},{"rt":130.97999999811873,"stimulus":"<p>Choose a box,</p>","button_pressed":0,"trial_type":"html-button-response","trial_index":67,"time_elapsed":698809,"internal_node_id":"0.0-19.21-0.21"},{"rate":0.1752908961763035,"trial_type":"html-keyboard-response","trial_index":68,"time_elapsed":698810,"internal_node_id":"0.0-19.21-1.21"},{"rt":null,"stimulus":"<div style=\"background-color:#ff7157\"><h1 style=\"background-color:Tomato\">Bad luck! There was no prize in the box!</h1><h1 style=\"background-color:Tomato\">Remember, you need to keep going until you have 20 prizes!</h1><img id=\"box\" src=\"img/sad/blueopenboxsadthumb.png\"></img></div>","key_press":null,"trial_type":"html-keyboard-response","trial_index":68,"time_elapsed":700311,"internal_node_id":"0.0-19.21-1.21"},{"rt":280.9799999995157,"stimulus":"<p>Choose a box,</p>","button_pressed":1,"trial_type":"html-button-response","trial_index":69,"time_elapsed":700593,"internal_node_id":"0.0-19.22-0.22"},{"rate":0.6108379474987261,"trial_type":"html-keyboard-response","trial_index":70,"time_elapsed":700593,"internal_node_id":"0.0-19.22-1.22"},{"rt":null,"stimulus":"<div style=\"background-color:#ff7157\"><h1 style=\"background-color:Tomato\">Bad luck! There was no prize in the box!</h1><h1 style=\"background-color:Tomato\">Remember, you need to keep going until you have 20 prizes!</h1><img id=\"box\" src=\"img/sad/greenopenboxsadthumb.png\"></img></div>","key_press":null,"trial_type":"html-keyboard-response","trial_index":70,"time_elapsed":702093,"internal_node_id":"0.0-19.22-1.22"},{"rt":435.86000000149943,"stimulus":"<p>Choose a box,</p>","button_pressed":2,"trial_type":"html-button-response","trial_index":71,"time_elapsed":702531,"internal_node_id":"0.0-19.23-0.23"},{"rate":0.2950097985264275,"trial_type":"html-keyboard-response","trial_index":72,"time_elapsed":702531,"internal_node_id":"0.0-19.23-1.23"},{"rt":null,"stimulus":"<div style=\"background-color:#ff7157\"><h1 style=\"background-color:Tomato\">Bad luck! There was no prize in the box!</h1><h1 style=\"background-color:Tomato\">Remember, you need to keep going until you have 20 prizes!</h1><img id=\"box\" src=\"img/sad/purpleopenboxsadthumb.png\"></img></div>","key_press":null,"trial_type":"html-keyboard-response","trial_index":72,"time_elapsed":704031,"internal_node_id":"0.0-19.23-1.23"},{"rt":451.16000000049826,"stimulus":"<p>Choose a box,</p>","button_pressed":3,"trial_type":"html-button-response","trial_index":73,"time_elapsed":704484,"internal_node_id":"0.0-19.24-0.24"},{"rate":0.7415333937585274,"trial_type":"html-keyboard-response","trial_index":74,"time_elapsed":704484,"internal_node_id":"0.0-19.24-1.24"},{"rt":null,"stimulus":"<div style=\"background-color:#6dce98\"><h1 style=\"background-color:MediumSeaGreen\" >You won a prize! Well done!</h1><div style=\"background-color:#6dce98\"><h1 style=\"background-color:MediumSeaGreen\" >Only 8 left to go!</h1><img id=\"box\" src=\"img/prizes/duck.png\"></img><img id=\"box\" src=\"img/empty/redopenbox.png\"></img></div>","key_press":null,"trial_type":"html-keyboard-response","trial_index":74,"time_elapsed":705984,"internal_node_id":"0.0-19.24-1.24"},{"rt":624.9699999971781,"stimulus":"<p>Choose a box,</p>","button_pressed":0,"trial_type":"html-button-response","trial_index":75,"time_elapsed":706610,"internal_node_id":"0.0-19.25-0.25"},{"rate":0.1752908961763035,"trial_type":"html-keyboard-response","trial_index":76,"time_elapsed":706611,"internal_node_id":"0.0-19.25-1.25"},{"rt":null,"stimulus":"<div style=\"background-color:#ff7157\"><h1 style=\"background-color:Tomato\">Bad luck! There was no prize in the box!</h1><h1 style=\"background-color:Tomato\">Remember, you need to keep going until you have 20 prizes!</h1><img id=\"box\" src=\"img/sad/blueopenboxsadthumb.png\"></img></div>","key_press":null,"trial_type":"html-keyboard-response","trial_index":76,"time_elapsed":708111,"internal_node_id":"0.0-19.25-1.25"},{"rt":310.5649999998277,"stimulus":"<p>Choose a box,</p>","button_pressed":2,"trial_type":"html-button-response","trial_index":77,"time_elapsed":708423,"internal_node_id":"0.0-19.26-0.26"},{"rate":0.2950097985264275,"trial_type":"html-keyboard-response","trial_index":78,"time_elapsed":708423,"internal_node_id":"0.0-19.26-1.26"},{"rt":null,"stimulus":"<div style=\"background-color:#ff7157\"><h1 style=\"background-color:Tomato\">Bad luck! There was no prize in the box!</h1><h1 style=\"background-color:Tomato\">Remember, you need to keep going until you have 20 prizes!</h1><img id=\"box\" src=\"img/sad/purpleopenboxsadthumb.png\"></img></div>","key_press":null,"trial_type":"html-keyboard-response","trial_index":78,"time_elapsed":709925,"internal_node_id":"0.0-19.26-1.26"},{"rt":254.87500000244472,"stimulus":"<p>Choose a box,</p>","button_pressed":2,"trial_type":"html-button-response","trial_index":79,"time_elapsed":710181,"internal_node_id":"0.0-19.27-0.27"},{"rate":0.2950097985264275,"trial_type":"html-keyboard-response","trial_index":80,"time_elapsed":710182,"internal_node_id":"0.0-19.27-1.27"},{"rt":null,"stimulus":"<div style=\"background-color:#6dce98\"><h1 style=\"background-color:MediumSeaGreen\" >You won a prize! Well done!</h1><div style=\"background-color:#6dce98\"><h1 style=\"background-color:MediumSeaGreen\" >Only 7 left to go!</h1><img id=\"box\" src=\"img/prizes/ring.png\"></img><img id=\"box\" src=\"img/empty/purpleopenbox.png\"></img></div>","key_press":null,"trial_type":"html-keyboard-response","trial_index":80,"time_elapsed":711683,"internal_node_id":"0.0-19.27-1.27"},{"rt":588.7249999977648,"stimulus":"<p>Choose a box,</p>","button_pressed":1,"trial_type":"html-button-response","trial_index":81,"time_elapsed":712273,"internal_node_id":"0.0-19.28-0.28"},{"rate":0.6108379474987261,"trial_type":"html-keyboard-response","trial_index":82,"time_elapsed":712273,"internal_node_id":"0.0-19.28-1.28"},{"rt":null,"stimulus":"<div style=\"background-color:#ff7157\"><h1 style=\"background-color:Tomato\">Bad luck! There was no prize in the box!</h1><h1 style=\"background-color:Tomato\">Remember, you need to keep going until you have 20 prizes!</h1><img id=\"box\" src=\"img/sad/greenopenboxsadthumb.png\"></img></div>","key_press":null,"trial_type":"html-keyboard-response","trial_index":82,"time_elapsed":713774,"internal_node_id":"0.0-19.28-1.28"},{"rt":554.7499999993015,"stimulus":"<p>Choose a box,</p>","button_pressed":3,"trial_type":"html-button-response","trial_index":83,"time_elapsed":714330,"internal_node_id":"0.0-19.29-0.29"},{"rate":0.7415333937585274,"trial_type":"html-keyboard-response","trial_index":84,"time_elapsed":714330,"internal_node_id":"0.0-19.29-1.29"},{"rt":null,"stimulus":"<div style=\"background-color:#6dce98\"><h1 style=\"background-color:MediumSeaGreen\" >You won a prize! Well done!</h1><div style=\"background-color:#6dce98\"><h1 style=\"background-color:MediumSeaGreen\" >Only 6 left to go!</h1><img id=\"box\" src=\"img/prizes/yoyo.png\"></img><img id=\"box\" src=\"img/empty/redopenbox.png\"></img></div>","key_press":null,"trial_type":"html-keyboard-response","trial_index":84,"time_elapsed":716182,"internal_node_id":"0.0-19.29-1.29"},{"rt":2757.260000002105,"stimulus":"<p>Choose a box,</p>","button_pressed":1,"trial_type":"html-button-response","trial_index":85,"time_elapsed":718940,"internal_node_id":"0.0-19.30-0.30"},{"rate":0.6108379474987261,"trial_type":"html-keyboard-response","trial_index":86,"time_elapsed":718940,"internal_node_id":"0.0-19.30-1.30"},{"rt":null,"stimulus":"<div style=\"background-color:#ff7157\"><h1 style=\"background-color:Tomato\">Bad luck! There was no prize in the box!</h1><h1 style=\"background-color:Tomato\">Remember, you need to keep going until you have 20 prizes!</h1><img id=\"box\" src=\"img/sad/greenopenboxsadthumb.png\"></img></div>","key_press":null,"trial_type":"html-keyboard-response","trial_index":86,"time_elapsed":720442,"internal_node_id":"0.0-19.30-1.30"},{"rt":909.3199999987846,"stimulus":"<p>Choose a box,</p>","button_pressed":2,"trial_type":"html-button-response","trial_index":87,"time_elapsed":721353,"internal_node_id":"0.0-19.31-0.31"},{"rate":0.2950097985264275,"trial_type":"html-keyboard-response","trial_index":88,"time_elapsed":721353,"internal_node_id":"0.0-19.31-1.31"},{"rt":null,"stimulus":"<div style=\"background-color:#6dce98\"><h1 style=\"background-color:MediumSeaGreen\" >You won a prize! Well done!</h1><div style=\"background-color:#6dce98\"><h1 style=\"background-color:MediumSeaGreen\" >Only 5 left to go!</h1><img id=\"box\" src=\"img/prizes/yoyo.png\"></img><img id=\"box\" src=\"img/empty/purpleopenbox.png\"></img></div>","key_press":null,"trial_type":"html-keyboard-response","trial_index":88,"time_elapsed":723129,"internal_node_id":"0.0-19.31-1.31"},{"rt":539.3600000024308,"stimulus":"<p>Choose a box,</p>","button_pressed":2,"trial_type":"html-button-response","trial_index":89,"time_elapsed":723670,"internal_node_id":"0.0-19.32-0.32"},{"rate":0.2950097985264275,"trial_type":"html-keyboard-response","trial_index":90,"time_elapsed":723670,"internal_node_id":"0.0-19.32-1.32"},{"rt":null,"stimulus":"<div style=\"background-color:#ff7157\"><h1 style=\"background-color:Tomato\">Bad luck! There was no prize in the box!</h1><h1 style=\"background-color:Tomato\">Remember, you need to keep going until you have 20 prizes!</h1><img id=\"box\" src=\"img/sad/purpleopenboxsadthumb.png\"></img></div>","key_press":null,"trial_type":"html-keyboard-response","trial_index":90,"time_elapsed":725170,"internal_node_id":"0.0-19.32-1.32"},{"rt":341.1199999973178,"stimulus":"<p>Choose a box,</p>","button_pressed":3,"trial_type":"html-button-response","trial_index":91,"time_elapsed":725513,"internal_node_id":"0.0-19.33-0.33"},{"rate":0.7415333937585274,"trial_type":"html-keyboard-response","trial_index":92,"time_elapsed":725513,"internal_node_id":"0.0-19.33-1.33"},{"rt":null,"stimulus":"<div style=\"background-color:#6dce98\"><h1 style=\"background-color:MediumSeaGreen\" >You won a prize! Well done!</h1><div style=\"background-color:#6dce98\"><h1 style=\"background-color:MediumSeaGreen\" >Only 4 left to go!</h1><img id=\"box\" src=\"img/prizes/bear.png\"></img><img id=\"box\" src=\"img/empty/redopenbox.png\"></img></div>","key_press":null,"trial_type":"html-keyboard-response","trial_index":92,"time_elapsed":727014,"internal_node_id":"0.0-19.33-1.33"},{"rt":409.1000000006752,"stimulus":"<p>Choose a box,</p>","button_pressed":0,"trial_type":"html-button-response","trial_index":93,"time_elapsed":727425,"internal_node_id":"0.0-19.34-0.34"},{"rate":0.1752908961763035,"trial_type":"html-keyboard-response","trial_index":94,"time_elapsed":727425,"internal_node_id":"0.0-19.34-1.34"},{"rt":null,"stimulus":"<div style=\"background-color:#ff7157\"><h1 style=\"background-color:Tomato\">Bad luck! There was no prize in the box!</h1><h1 style=\"background-color:Tomato\">Remember, you need to keep going until you have 20 prizes!</h1><img id=\"box\" src=\"img/sad/blueopenboxsadthumb.png\"></img></div>","key_press":null,"trial_type":"html-keyboard-response","trial_index":94,"time_elapsed":728925,"internal_node_id":"0.0-19.34-1.34"},{"rt":391.3750000029104,"stimulus":"<p>Choose a box,</p>","button_pressed":1,"trial_type":"html-button-response","trial_index":95,"time_elapsed":729318,"internal_node_id":"0.0-19.35-0.35"},{"rate":0.6108379474987261,"trial_type":"html-keyboard-response","trial_index":96,"time_elapsed":729318,"internal_node_id":"0.0-19.35-1.35"},{"rt":null,"stimulus":"<div style=\"background-color:#6dce98\"><h1 style=\"background-color:MediumSeaGreen\" >You won a prize! Well done!</h1><div style=\"background-color:#6dce98\"><h1 style=\"background-color:MediumSeaGreen\" >Only 3 left to go!</h1><img id=\"box\" src=\"img/prizes/lolipop.png\"></img><img id=\"box\" src=\"img/empty/greenopenbox.png\"></img></div>","key_press":null,"trial_type":"html-keyboard-response","trial_index":96,"time_elapsed":730820,"internal_node_id":"0.0-19.35-1.35"},{"rt":444.38999999698717,"stimulus":"<p>Choose a box,</p>","button_pressed":2,"trial_type":"html-button-response","trial_index":97,"time_elapsed":731266,"internal_node_id":"0.0-19.36-0.36"},{"rate":0.2950097985264275,"trial_type":"html-keyboard-response","trial_index":98,"time_elapsed":731266,"internal_node_id":"0.0-19.36-1.36"},{"rt":null,"stimulus":"<div style=\"background-color:#ff7157\"><h1 style=\"background-color:Tomato\">Bad luck! There was no prize in the box!</h1><h1 style=\"background-color:Tomato\">Remember, you need to keep going until you have 20 prizes!</h1><img id=\"box\" src=\"img/sad/purpleopenboxsadthumb.png\"></img></div>","key_press":null,"trial_type":"html-keyboard-response","trial_index":98,"time_elapsed":732767,"internal_node_id":"0.0-19.36-1.36"},{"rt":325.11000000161584,"stimulus":"<p>Choose a box,</p>","button_pressed":3,"trial_type":"html-button-response","trial_index":99,"time_elapsed":733094,"internal_node_id":"0.0-19.37-0.37"},{"rate":0.7415333937585274,"trial_type":"html-keyboard-response","trial_index":100,"time_elapsed":733094,"internal_node_id":"0.0-19.37-1.37"},{"rt":null,"stimulus":"<div style=\"background-color:#6dce98\"><h1 style=\"background-color:MediumSeaGreen\" >You won a prize! Well done!</h1><div style=\"background-color:#6dce98\"><h1 style=\"background-color:MediumSeaGreen\" >Only 2 left to go!</h1><img id=\"box\" src=\"img/prizes/choc.png\"></img><img id=\"box\" src=\"img/empty/redopenbox.png\"></img></div>","key_press":null,"trial_type":"html-keyboard-response","trial_index":100,"time_elapsed":734596,"internal_node_id":"0.0-19.37-1.37"},{"rt":1167.8900000007125,"stimulus":"<p>Choose a box,</p>","button_pressed":3,"trial_type":"html-button-response","trial_index":101,"time_elapsed":735765,"internal_node_id":"0.0-19.38-0.38"},{"rate":0.7415333937585274,"trial_type":"html-keyboard-response","trial_index":102,"time_elapsed":735765,"internal_node_id":"0.0-19.38-1.38"},{"rt":null,"stimulus":"<div style=\"background-color:#6dce98\"><h1 style=\"background-color:MediumSeaGreen\" >You won a prize! Well done!</h1><div style=\"background-color:#6dce98\"><h1 style=\"background-color:MediumSeaGreen\" >Only 1 left to go!</h1><img id=\"box\" src=\"img/prizes/bear.png\"></img><img id=\"box\" src=\"img/empty/redopenbox.png\"></img></div>","key_press":null,"trial_type":"html-keyboard-response","trial_index":102,"time_elapsed":737265,"internal_node_id":"0.0-19.38-1.38"},{"rt":341.2350000034785,"stimulus":"<p>Choose a box,</p>","button_pressed":0,"trial_type":"html-button-response","trial_index":103,"time_elapsed":737608,"internal_node_id":"0.0-19.39-0.39"},{"rate":0.1752908961763035,"trial_type":"html-keyboard-response","trial_index":104,"time_elapsed":737608,"internal_node_id":"0.0-19.39-1.39"},{"rt":null,"stimulus":"<div style=\"background-color:#6dce98\"><h1 style=\"background-color:MediumSeaGreen\" >You won a prize! Well done!</h1><div style=\"background-color:#6dce98\"><h1 style=\"background-color:MediumSeaGreen\" >Only 0 left to go!</h1><img id=\"box\" src=\"img/prizes/ring.png\"></img><img id=\"box\" src=\"img/empty/blueopenbox.png\"></img></div>","key_press":null,"trial_type":"html-keyboard-response","trial_index":104,"time_elapsed":739111,"internal_node_id":"0.0-19.39-1.39"},{"rt":70068.299999999,"responses":"{\"Q0\":\"I think lucky is counts here\",\"Q1\":\"I clicked random boxes\"}","trial_type":"survey-text","trial_index":105,"time_elapsed":809185,"internal_node_id":"0.0-20.0"}]