[{"view_history":"[{\"page_index\":0,\"viewing_time\":16251.550000160933},{\"page_index\":1,\"viewing_time\":4639.96999990195},{\"page_index\":2,\"viewing_time\":2367.490000091493},{\"page_index\":3,\"viewing_time\":5271.999999880791},{\"page_index\":4,\"viewing_time\":3080.0250000320375},{\"page_index\":5,\"viewing_time\":2447.849999880418}]","rt":34059.85000007786,"trial_type":"instructions","trial_index":0,"time_elapsed":34062,"internal_node_id":"0.0-0.0"},{"rt":5221.445000031963,"responses":"{\"Q0\":\"Yes\",\"Q1\":\"Yes\",\"Q2\":\"Yes\"}","question_order":"[0,1,2]","trial_type":"survey-multi-choice","trial_index":1,"time_elapsed":39286,"internal_node_id":"0.0-1.0-0.0"},{"rt":8156.145000131801,"responses":"{\"Q0\":\"Yes\",\"Q1\":\"Yes\",\"Q2\":\"Yes\"}","question_order":"[0,1,2]","trial_type":"survey-multi-choice","trial_index":2,"time_elapsed":47446,"internal_node_id":"0.0-2.0-0.0"},{"rt":6762.774999951944,"responses":"{\"Q0\":\"5f14dbbb791d175744d71a09\"}","trial_type":"survey-text","trial_index":3,"time_elapsed":54215,"internal_node_id":"0.0-3.0"},{"rt":3437.41500005126,"responses":"{\"Q0\":\"Male\",\"Q1\":\"18-25\"}","question_order":"[0,1]","trial_type":"survey-multi-choice","trial_index":4,"time_elapsed":57654,"internal_node_id":"0.0-4.0"},{"rt":2699.5200000237674,"responses":"{\"Q0\":\"\"}","trial_type":"survey-text","trial_index":5,"time_elapsed":60358,"internal_node_id":"0.0-5.0"},{"view_history":"[{\"page_index\":0,\"viewing_time\":1487.059999955818}]","rt":1487.364999949932,"trial_type":"instructions","trial_index":6,"time_elapsed":61846,"internal_node_id":"0.0-6.0"},{"rt":11622.210000175983,"responses":"{\"Interested\":3,\"Distressed\":1,\"Excited\":3,\"Upset\":0}","question_order":"[0,1,2,3]","trial_type":"survey-likert","trial_index":7,"time_elapsed":73471,"internal_node_id":"0.0-7.0"},{"rt":6677.669999888167,"responses":"{\"Strong\":3,\"Guilty\":0,\"Scared\":0,\"Hostile\":0}","question_order":"[0,1,2,3]","trial_type":"survey-likert","trial_index":8,"time_elapsed":80151,"internal_node_id":"0.0-8.0"},{"rt":31302.074999781325,"responses":"{\"Enthusiastic\":4,\"Proud\":3,\"Irritable\":0,\"Alert\":1}","question_order":"[0,1,2,3]","trial_type":"survey-likert","trial_index":9,"time_elapsed":111456,"internal_node_id":"0.0-9.0"},{"rt":8124.749999959022,"responses":"{\"Ashamed\":0,\"Inspired\":3,\"Nervous\":1,\"Determined\":2}","question_order":"[0,1,2,3]","trial_type":"survey-likert","trial_index":10,"time_elapsed":119583,"internal_node_id":"0.0-10.0"},{"rt":6125.334999989718,"responses":"{\"Attentive\":3,\"Jittery\":0,\"Active\":3,\"Afraid\":0}","question_order":"[0,1,2,3]","trial_type":"survey-likert","trial_index":11,"time_elapsed":125711,"internal_node_id":"0.0-11.0"},{"rt":17709.620000096038,"responses":"{\"Q0\":0,\"Q1\":0,\"Q2\":1,\"Q3\":1}","question_order":"[0,1,2,3]","trial_type":"survey-likert","trial_index":12,"time_elapsed":143423,"internal_node_id":"0.0-12.0"},{"rt":10725.499999942258,"responses":"{\"Q0\":1,\"Q1\":0,\"Q2\":0,\"Q3\":0}","question_order":"[0,1,2,3]","trial_type":"survey-likert","trial_index":13,"time_elapsed":154150,"internal_node_id":"0.0-13.0"},{"rt":10630.33500011079,"responses":"{\"Q0\":1,\"Q1\":0,\"Q2\":0,\"Q3\":0}","question_order":"[0,1,2,3]","trial_type":"survey-likert","trial_index":14,"time_elapsed":164783,"internal_node_id":"0.0-14.0"},{"rt":9789.774999953806,"responses":"{\"Q0\":0,\"Q1\":0,\"Q2\":0}","question_order":"[0,1,2]","trial_type":"survey-likert","trial_index":15,"time_elapsed":174575,"internal_node_id":"0.0-15.0"},{"view_history":"[{\"page_index\":0,\"viewing_time\":1671.3849999941885},{\"page_index\":1,\"viewing_time\":3151.934999972582},{\"page_index\":2,\"viewing_time\":3999.9249998945743}]","rt":8823.519999859855,"trial_type":"instructions","trial_index":16,"time_elapsed":183407,"internal_node_id":"0.0-16.0"},{"rt":1278.3099999651313,"stimulus":"<p>Choose a box,</p>","button_pressed":2,"trial_type":"html-button-response","trial_index":17,"time_elapsed":184688,"internal_node_id":"0.0-17.0-0.0"},{"rate":0.6053084091737487,"trial_type":"html-keyboard-response","trial_index":18,"time_elapsed":184688,"internal_node_id":"0.0-17.0-1.0"},{"rt":null,"stimulus":"<div style=\"background-color:#ff7157\"><h1 style=\"background-color:Tomato\">Bad luck! There was no prize in the box!</h1><h1 style=\"background-color:Tomato\">Remember, you need to keep going until you have 20 prizes!</h1><img id=\"box\" src=\"img/sad/purpleopenboxsadthumb.png\"></img></div>","key_press":null,"trial_type":"html-keyboard-response","trial_index":18,"time_elapsed":186190,"internal_node_id":"0.0-17.0-1.0"},{"rt":167.2950000502169,"stimulus":"<p>Choose a box,</p>","button_pressed":1,"trial_type":"html-button-response","trial_index":19,"time_elapsed":186359,"internal_node_id":"0.0-17.0-0.1"},{"rate":0.22625938919670294,"trial_type":"html-keyboard-response","trial_index":20,"time_elapsed":186359,"internal_node_id":"0.0-17.0-1.1"},{"rt":null,"stimulus":"<div style=\"background-color:#ff7157\"><h1 style=\"background-color:Tomato\">Bad luck! There was no prize in the box!</h1><h1 style=\"background-color:Tomato\">Remember, you need to keep going until you have 20 prizes!</h1><img id=\"box\" src=\"img/sad/greenopenboxsadthumb.png\"></img></div>","key_press":null,"trial_type":"html-keyboard-response","trial_index":20,"time_elapsed":187861,"internal_node_id":"0.0-17.0-1.1"},{"rt":512.6000000163913,"stimulus":"<p>Choose a box,</p>","button_pressed":1,"trial_type":"html-button-response","trial_index":21,"time_elapsed":188375,"internal_node_id":"0.0-17.0-0.2"},{"rate":0.22625938919670294,"trial_type":"html-keyboard-response","trial_index":22,"time_elapsed":188375,"internal_node_id":"0.0-17.0-1.2"},{"rt":null,"stimulus":"<div style=\"background-color:#ff7157\"><h1 style=\"background-color:Tomato\">Bad luck! There was no prize in the box!</h1><h1 style=\"background-color:Tomato\">Remember, you need to keep going until you have 20 prizes!</h1><img id=\"box\" src=\"img/sad/greenopenboxsadthumb.png\"></img></div>","key_press":null,"trial_type":"html-keyboard-response","trial_index":22,"time_elapsed":189877,"internal_node_id":"0.0-17.0-1.2"},{"view_history":"[{\"page_index\":0,\"viewing_time\":964.5050000399351}]","rt":964.7949999198318,"trial_type":"instructions","trial_index":23,"time_elapsed":190847,"internal_node_id":"0.0-18.0"},{"rt":710.9600000549108,"stimulus":"<p>Choose a box,</p>","button_pressed":0,"trial_type":"html-button-response","trial_index":24,"time_elapsed":191560,"internal_node_id":"0.0-19.0-0.0"},{"rate":0.9213945207798162,"trial_type":"html-keyboard-response","trial_index":25,"time_elapsed":191560,"internal_node_id":"0.0-19.0-1.0"},{"rt":null,"stimulus":"<div style=\"background-color:#6dce98\"><h1 style=\"background-color:MediumSeaGreen\" >You won a prize! Well done!</h1><div style=\"background-color:#6dce98\"><h1 style=\"background-color:MediumSeaGreen\" >Only 19 left to go!</h1><img id=\"box\" src=\"img/prizes/lolipop.png\"></img><img id=\"box\" src=\"img/empty/blueopenbox.png\"></img></div>","key_press":null,"trial_type":"html-keyboard-response","trial_index":25,"time_elapsed":193062,"internal_node_id":"0.0-19.0-1.0"},{"rt":623.4649999532849,"stimulus":"<p>Choose a box,</p>","button_pressed":3,"trial_type":"html-button-response","trial_index":26,"time_elapsed":193687,"internal_node_id":"0.0-19.1-0.1"},{"rate":0.26980156924095555,"trial_type":"html-keyboard-response","trial_index":27,"time_elapsed":193687,"internal_node_id":"0.0-19.1-1.1"},{"rt":null,"stimulus":"<div style=\"background-color:#ff7157\"><h1 style=\"background-color:Tomato\">Bad luck! There was no prize in the box!</h1><h1 style=\"background-color:Tomato\">Remember, you need to keep going until you have 20 prizes!</h1><img id=\"box\" src=\"img/sad/redopenboxsadthumb.png\"></img></div>","key_press":null,"trial_type":"html-keyboard-response","trial_index":27,"time_elapsed":195189,"internal_node_id":"0.0-19.1-1.1"},{"rt":392.53500010818243,"stimulus":"<p>Choose a box,</p>","button_pressed":0,"trial_type":"html-button-response","trial_index":28,"time_elapsed":195583,"internal_node_id":"0.0-19.2-0.2"},{"rate":0.9213945207798162,"trial_type":"html-keyboard-response","trial_index":29,"time_elapsed":195583,"internal_node_id":"0.0-19.2-1.2"},{"rt":null,"stimulus":"<div style=\"background-color:#6dce98\"><h1 style=\"background-color:MediumSeaGreen\" >You won a prize! Well done!</h1><div style=\"background-color:#6dce98\"><h1 style=\"background-color:MediumSeaGreen\" >Only 18 left to go!</h1><img id=\"box\" src=\"img/prizes/lolipop.png\"></img><img id=\"box\" src=\"img/empty/blueopenbox.png\"></img></div>","key_press":null,"trial_type":"html-keyboard-response","trial_index":29,"time_elapsed":197085,"internal_node_id":"0.0-19.2-1.2"},{"rt":343.9799998886883,"stimulus":"<p>Choose a box,</p>","button_pressed":0,"trial_type":"html-button-response","trial_index":30,"time_elapsed":197431,"internal_node_id":"0.0-19.3-0.3"},{"rate":0.9213945207798162,"trial_type":"html-keyboard-response","trial_index":31,"time_elapsed":197431,"internal_node_id":"0.0-19.3-1.3"},{"rt":null,"stimulus":"<div style=\"background-color:#6dce98\"><h1 style=\"background-color:MediumSeaGreen\" >You won a prize! Well done!</h1><div style=\"background-color:#6dce98\"><h1 style=\"background-color:MediumSeaGreen\" >Only 17 left to go!</h1><img id=\"box\" src=\"img/prizes/lolipop.png\"></img><img id=\"box\" src=\"img/empty/blueopenbox.png\"></img></div>","key_press":null,"trial_type":"html-keyboard-response","trial_index":31,"time_elapsed":198934,"internal_node_id":"0.0-19.3-1.3"},{"rt":279.3250000104308,"stimulus":"<p>Choose a box,</p>","button_pressed":0,"trial_type":"html-button-response","trial_index":32,"time_elapsed":199215,"internal_node_id":"0.0-19.4-0.4"},{"rate":0.9213945207798162,"trial_type":"html-keyboard-response","trial_index":33,"time_elapsed":199215,"internal_node_id":"0.0-19.4-1.4"},{"rt":null,"stimulus":"<div style=\"background-color:#6dce98\"><h1 style=\"background-color:MediumSeaGreen\" >You won a prize! Well done!</h1><div style=\"background-color:#6dce98\"><h1 style=\"background-color:MediumSeaGreen\" >Only 16 left to go!</h1><img id=\"box\" src=\"img/prizes/coins.png\"></img><img id=\"box\" src=\"img/empty/blueopenbox.png\"></img></div>","key_press":null,"trial_type":"html-keyboard-response","trial_index":33,"time_elapsed":200718,"internal_node_id":"0.0-19.4-1.4"},{"rt":303.940000012517,"stimulus":"<p>Choose a box,</p>","button_pressed":0,"trial_type":"html-button-response","trial_index":34,"time_elapsed":201023,"internal_node_id":"0.0-19.5-0.5"},{"rate":0.9213945207798162,"trial_type":"html-keyboard-response","trial_index":35,"time_elapsed":201023,"internal_node_id":"0.0-19.5-1.5"},{"rt":null,"stimulus":"<div style=\"background-color:#6dce98\"><h1 style=\"background-color:MediumSeaGreen\" >You won a prize! Well done!</h1><div style=\"background-color:#6dce98\"><h1 style=\"background-color:MediumSeaGreen\" >Only 15 left to go!</h1><img id=\"box\" src=\"img/prizes/yoyo.png\"></img><img id=\"box\" src=\"img/empty/blueopenbox.png\"></img></div>","key_press":null,"trial_type":"html-keyboard-response","trial_index":35,"time_elapsed":202526,"internal_node_id":"0.0-19.5-1.5"},{"rt":272.02999987639487,"stimulus":"<p>Choose a box,</p>","button_pressed":0,"trial_type":"html-button-response","trial_index":36,"time_elapsed":202799,"internal_node_id":"0.0-19.6-0.6"},{"rate":0.9213945207798162,"trial_type":"html-keyboard-response","trial_index":37,"time_elapsed":202800,"internal_node_id":"0.0-19.6-1.6"},{"rt":null,"stimulus":"<div style=\"background-color:#6dce98\"><h1 style=\"background-color:MediumSeaGreen\" >You won a prize! Well done!</h1><div style=\"background-color:#6dce98\"><h1 style=\"background-color:MediumSeaGreen\" >Only 14 left to go!</h1><img id=\"box\" src=\"img/prizes/flowers.png\"></img><img id=\"box\" src=\"img/empty/blueopenbox.png\"></img></div>","key_press":null,"trial_type":"html-keyboard-response","trial_index":37,"time_elapsed":204303,"internal_node_id":"0.0-19.6-1.6"},{"rt":279.039999935776,"stimulus":"<p>Choose a box,</p>","button_pressed":0,"trial_type":"html-button-response","trial_index":38,"time_elapsed":204583,"internal_node_id":"0.0-19.7-0.7"},{"rate":0.9213945207798162,"trial_type":"html-keyboard-response","trial_index":39,"time_elapsed":204583,"internal_node_id":"0.0-19.7-1.7"},{"rt":null,"stimulus":"<div style=\"background-color:#ff7157\"><h1 style=\"background-color:Tomato\">Bad luck! There was no prize in the box!</h1><h1 style=\"background-color:Tomato\">Remember, you need to keep going until you have 20 prizes!</h1><img id=\"box\" src=\"img/sad/blueopenboxsadthumb.png\"></img></div>","key_press":null,"trial_type":"html-keyboard-response","trial_index":39,"time_elapsed":206085,"internal_node_id":"0.0-19.7-1.7"},{"rt":368.91499999910593,"stimulus":"<p>Choose a box,</p>","button_pressed":1,"trial_type":"html-button-response","trial_index":40,"time_elapsed":206455,"internal_node_id":"0.0-19.8-0.8"},{"rate":0.49953795648795785,"trial_type":"html-keyboard-response","trial_index":41,"time_elapsed":206455,"internal_node_id":"0.0-19.8-1.8"},{"rt":null,"stimulus":"<div style=\"background-color:#6dce98\"><h1 style=\"background-color:MediumSeaGreen\" >You won a prize! Well done!</h1><div style=\"background-color:#6dce98\"><h1 style=\"background-color:MediumSeaGreen\" >Only 13 left to go!</h1><img id=\"box\" src=\"img/prizes/lolipop.png\"></img><img id=\"box\" src=\"img/empty/greenopenbox.png\"></img></div>","key_press":null,"trial_type":"html-keyboard-response","trial_index":41,"time_elapsed":207957,"internal_node_id":"0.0-19.8-1.8"},{"rt":416.60499991849065,"stimulus":"<p>Choose a box,</p>","button_pressed":1,"trial_type":"html-button-response","trial_index":42,"time_elapsed":208376,"internal_node_id":"0.0-19.9-0.9"},{"rate":0.49953795648795785,"trial_type":"html-keyboard-response","trial_index":43,"time_elapsed":208376,"internal_node_id":"0.0-19.9-1.9"},{"rt":null,"stimulus":"<div style=\"background-color:#6dce98\"><h1 style=\"background-color:MediumSeaGreen\" >You won a prize! Well done!</h1><div style=\"background-color:#6dce98\"><h1 style=\"background-color:MediumSeaGreen\" >Only 12 left to go!</h1><img id=\"box\" src=\"img/prizes/duck.png\"></img><img id=\"box\" src=\"img/empty/greenopenbox.png\"></img></div>","key_press":null,"trial_type":"html-keyboard-response","trial_index":43,"time_elapsed":209878,"internal_node_id":"0.0-19.9-1.9"},{"rt":287.1449999511242,"stimulus":"<p>Choose a box,</p>","button_pressed":1,"trial_type":"html-button-response","trial_index":44,"time_elapsed":210167,"internal_node_id":"0.0-19.10-0.10"},{"rate":0.49953795648795785,"trial_type":"html-keyboard-response","trial_index":45,"time_elapsed":210167,"internal_node_id":"0.0-19.10-1.10"},{"rt":null,"stimulus":"<div style=\"background-color:#ff7157\"><h1 style=\"background-color:Tomato\">Bad luck! There was no prize in the box!</h1><h1 style=\"background-color:Tomato\">Remember, you need to keep going until you have 20 prizes!</h1><img id=\"box\" src=\"img/sad/greenopenboxsadthumb.png\"></img></div>","key_press":null,"trial_type":"html-keyboard-response","trial_index":45,"time_elapsed":211669,"internal_node_id":"0.0-19.10-1.10"},{"rt":353.31500018946826,"stimulus":"<p>Choose a box,</p>","button_pressed":0,"trial_type":"html-button-response","trial_index":46,"time_elapsed":212024,"internal_node_id":"0.0-19.11-0.11"},{"rate":0.9213945207798162,"trial_type":"html-keyboard-response","trial_index":47,"time_elapsed":212024,"internal_node_id":"0.0-19.11-1.11"},{"rt":null,"stimulus":"<div style=\"background-color:#6dce98\"><h1 style=\"background-color:MediumSeaGreen\" >You won a prize! Well done!</h1><div style=\"background-color:#6dce98\"><h1 style=\"background-color:MediumSeaGreen\" >Only 11 left to go!</h1><img id=\"box\" src=\"img/prizes/choc.png\"></img><img id=\"box\" src=\"img/empty/blueopenbox.png\"></img></div>","key_press":null,"trial_type":"html-keyboard-response","trial_index":47,"time_elapsed":213527,"internal_node_id":"0.0-19.11-1.11"},{"rt":301.9099999219179,"stimulus":"<p>Choose a box,</p>","button_pressed":0,"trial_type":"html-button-response","trial_index":48,"time_elapsed":213831,"internal_node_id":"0.0-19.12-0.12"},{"rate":0.9213945207798162,"trial_type":"html-keyboard-response","trial_index":49,"time_elapsed":213831,"internal_node_id":"0.0-19.12-1.12"},{"rt":null,"stimulus":"<div style=\"background-color:#6dce98\"><h1 style=\"background-color:MediumSeaGreen\" >You won a prize! Well done!</h1><div style=\"background-color:#6dce98\"><h1 style=\"background-color:MediumSeaGreen\" >Only 10 left to go!</h1><img id=\"box\" src=\"img/prizes/bear.png\"></img><img id=\"box\" src=\"img/empty/blueopenbox.png\"></img></div>","key_press":null,"trial_type":"html-keyboard-response","trial_index":49,"time_elapsed":215333,"internal_node_id":"0.0-19.12-1.12"},{"rt":280.144999967888,"stimulus":"<p>Choose a box,</p>","button_pressed":0,"trial_type":"html-button-response","trial_index":50,"time_elapsed":215615,"internal_node_id":"0.0-19.13-0.13"},{"rate":0.9213945207798162,"trial_type":"html-keyboard-response","trial_index":51,"time_elapsed":215615,"internal_node_id":"0.0-19.13-1.13"},{"rt":null,"stimulus":"<div style=\"background-color:#6dce98\"><h1 style=\"background-color:MediumSeaGreen\" >You won a prize! Well done!</h1><div style=\"background-color:#6dce98\"><h1 style=\"background-color:MediumSeaGreen\" >Only 9 left to go!</h1><img id=\"box\" src=\"img/prizes/beachball.png\"></img><img id=\"box\" src=\"img/empty/blueopenbox.png\"></img></div>","key_press":null,"trial_type":"html-keyboard-response","trial_index":51,"time_elapsed":217117,"internal_node_id":"0.0-19.13-1.13"},{"rt":232.90499998256564,"stimulus":"<p>Choose a box,</p>","button_pressed":0,"trial_type":"html-button-response","trial_index":52,"time_elapsed":217351,"internal_node_id":"0.0-19.14-0.14"},{"rate":0.9213945207798162,"trial_type":"html-keyboard-response","trial_index":53,"time_elapsed":217351,"internal_node_id":"0.0-19.14-1.14"},{"rt":null,"stimulus":"<div style=\"background-color:#6dce98\"><h1 style=\"background-color:MediumSeaGreen\" >You won a prize! Well done!</h1><div style=\"background-color:#6dce98\"><h1 style=\"background-color:MediumSeaGreen\" >Only 8 left to go!</h1><img id=\"box\" src=\"img/prizes/ring.png\"></img><img id=\"box\" src=\"img/empty/blueopenbox.png\"></img></div>","key_press":null,"trial_type":"html-keyboard-response","trial_index":53,"time_elapsed":218853,"internal_node_id":"0.0-19.14-1.14"},{"rt":408.59999996609986,"stimulus":"<p>Choose a box,</p>","button_pressed":0,"trial_type":"html-button-response","trial_index":54,"time_elapsed":219263,"internal_node_id":"0.0-19.15-0.15"},{"rate":0.9213945207798162,"trial_type":"html-keyboard-response","trial_index":55,"time_elapsed":219263,"internal_node_id":"0.0-19.15-1.15"},{"rt":null,"stimulus":"<div style=\"background-color:#6dce98\"><h1 style=\"background-color:MediumSeaGreen\" >You won a prize! Well done!</h1><div style=\"background-color:#6dce98\"><h1 style=\"background-color:MediumSeaGreen\" >Only 7 left to go!</h1><img id=\"box\" src=\"img/prizes/bear.png\"></img><img id=\"box\" src=\"img/empty/blueopenbox.png\"></img></div>","key_press":null,"trial_type":"html-keyboard-response","trial_index":55,"time_elapsed":220765,"internal_node_id":"0.0-19.15-1.15"},{"rt":240.23999995552003,"stimulus":"<p>Choose a box,</p>","button_pressed":0,"trial_type":"html-button-response","trial_index":56,"time_elapsed":221007,"internal_node_id":"0.0-19.16-0.16"},{"rate":0.9213945207798162,"trial_type":"html-keyboard-response","trial_index":57,"time_elapsed":221008,"internal_node_id":"0.0-19.16-1.16"},{"rt":null,"stimulus":"<div style=\"background-color:#ff7157\"><h1 style=\"background-color:Tomato\">Bad luck! There was no prize in the box!</h1><h1 style=\"background-color:Tomato\">Remember, you need to keep going until you have 20 prizes!</h1><img id=\"box\" src=\"img/sad/blueopenboxsadthumb.png\"></img></div>","key_press":null,"trial_type":"html-keyboard-response","trial_index":57,"time_elapsed":222510,"internal_node_id":"0.0-19.16-1.16"},{"rt":303.6050000227988,"stimulus":"<p>Choose a box,</p>","button_pressed":1,"trial_type":"html-button-response","trial_index":58,"time_elapsed":222815,"internal_node_id":"0.0-19.17-0.17"},{"rate":0.49953795648795785,"trial_type":"html-keyboard-response","trial_index":59,"time_elapsed":222815,"internal_node_id":"0.0-19.17-1.17"},{"rt":null,"stimulus":"<div style=\"background-color:#6dce98\"><h1 style=\"background-color:MediumSeaGreen\" >You won a prize! Well done!</h1><div style=\"background-color:#6dce98\"><h1 style=\"background-color:MediumSeaGreen\" >Only 6 left to go!</h1><img id=\"box\" src=\"img/prizes/beachball.png\"></img><img id=\"box\" src=\"img/empty/greenopenbox.png\"></img></div>","key_press":null,"trial_type":"html-keyboard-response","trial_index":59,"time_elapsed":224317,"internal_node_id":"0.0-19.17-1.17"},{"rt":432.73000000044703,"stimulus":"<p>Choose a box,</p>","button_pressed":1,"trial_type":"html-button-response","trial_index":60,"time_elapsed":224751,"internal_node_id":"0.0-19.18-0.18"},{"rate":0.49953795648795785,"trial_type":"html-keyboard-response","trial_index":61,"time_elapsed":224751,"internal_node_id":"0.0-19.18-1.18"},{"rt":null,"stimulus":"<div style=\"background-color:#ff7157\"><h1 style=\"background-color:Tomato\">Bad luck! There was no prize in the box!</h1><h1 style=\"background-color:Tomato\">Remember, you need to keep going until you have 20 prizes!</h1><img id=\"box\" src=\"img/sad/greenopenboxsadthumb.png\"></img></div>","key_press":null,"trial_type":"html-keyboard-response","trial_index":61,"time_elapsed":226253,"internal_node_id":"0.0-19.18-1.18"},{"rt":341.7800001334399,"stimulus":"<p>Choose a box,</p>","button_pressed":0,"trial_type":"html-button-response","trial_index":62,"time_elapsed":226599,"internal_node_id":"0.0-19.19-0.19"},{"rate":0.9213945207798162,"trial_type":"html-keyboard-response","trial_index":63,"time_elapsed":226599,"internal_node_id":"0.0-19.19-1.19"},{"rt":null,"stimulus":"<div style=\"background-color:#6dce98\"><h1 style=\"background-color:MediumSeaGreen\" >You won a prize! Well done!</h1><div style=\"background-color:#6dce98\"><h1 style=\"background-color:MediumSeaGreen\" >Only 5 left to go!</h1><img id=\"box\" src=\"img/prizes/yoyo.png\"></img><img id=\"box\" src=\"img/empty/blueopenbox.png\"></img></div>","key_press":null,"trial_type":"html-keyboard-response","trial_index":63,"time_elapsed":228101,"internal_node_id":"0.0-19.19-1.19"},{"rt":168.7199999578297,"stimulus":"<p>Choose a box,</p>","button_pressed":0,"trial_type":"html-button-response","trial_index":64,"time_elapsed":228271,"internal_node_id":"0.0-19.20-0.20"},{"rate":0.9213945207798162,"trial_type":"html-keyboard-response","trial_index":65,"time_elapsed":228272,"internal_node_id":"0.0-19.20-1.20"},{"rt":null,"stimulus":"<div style=\"background-color:#6dce98\"><h1 style=\"background-color:MediumSeaGreen\" >You won a prize! Well done!</h1><div style=\"background-color:#6dce98\"><h1 style=\"background-color:MediumSeaGreen\" >Only 4 left to go!</h1><img id=\"box\" src=\"img/prizes/beachball.png\"></img><img id=\"box\" src=\"img/empty/blueopenbox.png\"></img></div>","key_press":null,"trial_type":"html-keyboard-response","trial_index":65,"time_elapsed":229774,"internal_node_id":"0.0-19.20-1.20"},{"rt":271.67499996721745,"stimulus":"<p>Choose a box,</p>","button_pressed":0,"trial_type":"html-button-response","trial_index":66,"time_elapsed":230047,"internal_node_id":"0.0-19.21-0.21"},{"rate":0.9213945207798162,"trial_type":"html-keyboard-response","trial_index":67,"time_elapsed":230047,"internal_node_id":"0.0-19.21-1.21"},{"rt":null,"stimulus":"<div style=\"background-color:#ff7157\"><h1 style=\"background-color:Tomato\">Bad luck! There was no prize in the box!</h1><h1 style=\"background-color:Tomato\">Remember, you need to keep going until you have 20 prizes!</h1><img id=\"box\" src=\"img/sad/blueopenboxsadthumb.png\"></img></div>","key_press":null,"trial_type":"html-keyboard-response","trial_index":67,"time_elapsed":231549,"internal_node_id":"0.0-19.21-1.21"},{"rt":264.7049999795854,"stimulus":"<p>Choose a box,</p>","button_pressed":1,"trial_type":"html-button-response","trial_index":68,"time_elapsed":231815,"internal_node_id":"0.0-19.22-0.22"},{"rate":0.49953795648795785,"trial_type":"html-keyboard-response","trial_index":69,"time_elapsed":231815,"internal_node_id":"0.0-19.22-1.22"},{"rt":null,"stimulus":"<div style=\"background-color:#6dce98\"><h1 style=\"background-color:MediumSeaGreen\" >You won a prize! Well done!</h1><div style=\"background-color:#6dce98\"><h1 style=\"background-color:MediumSeaGreen\" >Only 3 left to go!</h1><img id=\"box\" src=\"img/prizes/duck.png\"></img><img id=\"box\" src=\"img/empty/greenopenbox.png\"></img></div>","key_press":null,"trial_type":"html-keyboard-response","trial_index":69,"time_elapsed":233318,"internal_node_id":"0.0-19.22-1.22"},{"rt":439.91999980062246,"stimulus":"<p>Choose a box,</p>","button_pressed":1,"trial_type":"html-button-response","trial_index":70,"time_elapsed":233759,"internal_node_id":"0.0-19.23-0.23"},{"rate":0.49953795648795785,"trial_type":"html-keyboard-response","trial_index":71,"time_elapsed":233759,"internal_node_id":"0.0-19.23-1.23"},{"rt":null,"stimulus":"<div style=\"background-color:#ff7157\"><h1 style=\"background-color:Tomato\">Bad luck! There was no prize in the box!</h1><h1 style=\"background-color:Tomato\">Remember, you need to keep going until you have 20 prizes!</h1><img id=\"box\" src=\"img/sad/greenopenboxsadthumb.png\"></img></div>","key_press":null,"trial_type":"html-keyboard-response","trial_index":71,"time_elapsed":235261,"internal_node_id":"0.0-19.23-1.23"},{"rt":288.54999993927777,"stimulus":"<p>Choose a box,</p>","button_pressed":0,"trial_type":"html-button-response","trial_index":72,"time_elapsed":235551,"internal_node_id":"0.0-19.24-0.24"},{"rate":0.9213945207798162,"trial_type":"html-keyboard-response","trial_index":73,"time_elapsed":235551,"internal_node_id":"0.0-19.24-1.24"},{"rt":null,"stimulus":"<div style=\"background-color:#6dce98\"><h1 style=\"background-color:MediumSeaGreen\" >You won a prize! Well done!</h1><div style=\"background-color:#6dce98\"><h1 style=\"background-color:MediumSeaGreen\" >Only 2 left to go!</h1><img id=\"box\" src=\"img/prizes/lolipop.png\"></img><img id=\"box\" src=\"img/empty/blueopenbox.png\"></img></div>","key_press":null,"trial_type":"html-keyboard-response","trial_index":73,"time_elapsed":237054,"internal_node_id":"0.0-19.24-1.24"},{"rt":343.2949997950345,"stimulus":"<p>Choose a box,</p>","button_pressed":0,"trial_type":"html-button-response","trial_index":74,"time_elapsed":237399,"internal_node_id":"0.0-19.25-0.25"},{"rate":0.9213945207798162,"trial_type":"html-keyboard-response","trial_index":75,"time_elapsed":237399,"internal_node_id":"0.0-19.25-1.25"},{"rt":null,"stimulus":"<div style=\"background-color:#ff7157\"><h1 style=\"background-color:Tomato\">Bad luck! There was no prize in the box!</h1><h1 style=\"background-color:Tomato\">Remember, you need to keep going until you have 20 prizes!</h1><img id=\"box\" src=\"img/sad/blueopenboxsadthumb.png\"></img></div>","key_press":null,"trial_type":"html-keyboard-response","trial_index":75,"time_elapsed":238902,"internal_node_id":"0.0-19.25-1.25"},{"rt":287.6999999862164,"stimulus":"<p>Choose a box,</p>","button_pressed":0,"trial_type":"html-button-response","trial_index":76,"time_elapsed":239191,"internal_node_id":"0.0-19.26-0.26"},{"rate":0.9213945207798162,"trial_type":"html-keyboard-response","trial_index":77,"time_elapsed":239191,"internal_node_id":"0.0-19.26-1.26"},{"rt":null,"stimulus":"<div style=\"background-color:#6dce98\"><h1 style=\"background-color:MediumSeaGreen\" >You won a prize! Well done!</h1><div style=\"background-color:#6dce98\"><h1 style=\"background-color:MediumSeaGreen\" >Only 1 left to go!</h1><img id=\"box\" src=\"img/prizes/bear.png\"></img><img id=\"box\" src=\"img/empty/blueopenbox.png\"></img></div>","key_press":null,"trial_type":"html-keyboard-response","trial_index":77,"time_elapsed":240692,"internal_node_id":"0.0-19.26-1.26"},{"rt":281.0849999077618,"stimulus":"<p>Choose a box,</p>","button_pressed":0,"trial_type":"html-button-response","trial_index":78,"time_elapsed":240975,"internal_node_id":"0.0-19.27-0.27"},{"rate":0.9213945207798162,"trial_type":"html-keyboard-response","trial_index":79,"time_elapsed":240975,"internal_node_id":"0.0-19.27-1.27"},{"rt":null,"stimulus":"<div style=\"background-color:#6dce98\"><h1 style=\"background-color:MediumSeaGreen\" >You won a prize! Well done!</h1><div style=\"background-color:#6dce98\"><h1 style=\"background-color:MediumSeaGreen\" >Only 0 left to go!</h1><img id=\"box\" src=\"img/prizes/bear.png\"></img><img id=\"box\" src=\"img/empty/blueopenbox.png\"></img></div>","key_press":null,"trial_type":"html-keyboard-response","trial_index":79,"time_elapsed":242477,"internal_node_id":"0.0-19.27-1.27"},{"rt":73404.97000003234,"responses":"{\"Q0\":\"It was interesting, the prizes in the boxes seemed kind of rigged.\",\"Q1\":\"I first tried the first one a couple times, it worked so i kept doing that, then it failed so i picked the second one and went back and forth on those first two boxes.\"}","trial_type":"survey-text","trial_index":80,"time_elapsed":315894,"internal_node_id":"0.0-20.0"}]