[{"view_history":"[{\"page_index\":0,\"viewing_time\":769991.6550000003},{\"page_index\":1,\"viewing_time\":5518.944999999832},{\"page_index\":2,\"viewing_time\":132902.56000000006},{\"page_index\":3,\"viewing_time\":7842.255000000005},{\"page_index\":4,\"viewing_time\":7386.385000000242},{\"page_index\":5,\"viewing_time\":10584.459999999614}]","rt":934228.3000000003,"trial_type":"instructions","trial_index":0,"time_elapsed":934231,"internal_node_id":"0.0-0.0"},{"rt":8109.965000000084,"responses":"{\"Q0\":\"Yes\",\"Q1\":\"Yes\",\"Q2\":\"Yes\"}","question_order":"[0,1,2]","trial_type":"survey-multi-choice","trial_index":1,"time_elapsed":942345,"internal_node_id":"0.0-1.0-0.0"},{"rt":10498.830000000075,"responses":"{\"Q0\":\"Yes\",\"Q1\":\"No\",\"Q2\":\"No\"}","question_order":"[0,1,2]","trial_type":"survey-multi-choice","trial_index":2,"time_elapsed":952848,"internal_node_id":"0.0-2.0-0.0"},{"rt":4924.815000000293,"responses":"{\"Q0\":\"Yes\",\"Q1\":\"Yes\",\"Q2\":\"Yes\"}","question_order":"[0,1,2]","trial_type":"survey-multi-choice","trial_index":3,"time_elapsed":963084,"internal_node_id":"0.0-2.1-0.1"},{"rt":12178.739999999874,"responses":"{\"Q0\":\"601a76dd9b6a55296ac06a4f\"}","trial_type":"survey-text","trial_index":4,"time_elapsed":975267,"internal_node_id":"0.0-3.0"},{"rt":6116.349999999744,"responses":"{\"Q0\":\"Female\",\"Q1\":\"25-34\"}","question_order":"[0,1]","trial_type":"survey-multi-choice","trial_index":5,"time_elapsed":981385,"internal_node_id":"0.0-4.0"},{"rt":5645.51500000013,"responses":"{\"Q0\":\"\"}","trial_type":"survey-text","trial_index":6,"time_elapsed":987035,"internal_node_id":"0.0-5.0"},{"view_history":"[{\"page_index\":0,\"viewing_time\":3477.8399999999674}]","rt":3478.4450000001816,"trial_type":"instructions","trial_index":7,"time_elapsed":990514,"internal_node_id":"0.0-6.0"},{"rt":13115.934999999823,"responses":"{\"Interested\":3,\"Distressed\":1,\"Excited\":2,\"Upset\":1}","question_order":"[0,1,2,3]","trial_type":"survey-likert","trial_index":8,"time_elapsed":1003634,"internal_node_id":"0.0-7.0"},{"rt":13066.089999999851,"responses":"{\"Strong\":1,\"Guilty\":2,\"Scared\":2,\"Hostile\":0}","question_order":"[0,1,2,3]","trial_type":"survey-likert","trial_index":9,"time_elapsed":1016703,"internal_node_id":"0.0-8.0"},{"rt":10961.390000000363,"responses":"{\"Enthusiastic\":0,\"Proud\":0,\"Irritable\":1,\"Alert\":2}","question_order":"[0,1,2,3]","trial_type":"survey-likert","trial_index":10,"time_elapsed":1027668,"internal_node_id":"0.0-9.0"},{"rt":13528.629999999772,"responses":"{\"Ashamed\":0,\"Inspired\":0,\"Nervous\":1,\"Determined\":1}","question_order":"[0,1,2,3]","trial_type":"survey-likert","trial_index":11,"time_elapsed":1041200,"internal_node_id":"0.0-10.0"},{"rt":11308.009999999893,"responses":"{\"Attentive\":1,\"Jittery\":3,\"Active\":1,\"Afraid\":1}","question_order":"[0,1,2,3]","trial_type":"survey-likert","trial_index":12,"time_elapsed":1052511,"internal_node_id":"0.0-11.0"},{"rt":17960.92000000039,"responses":"{\"Q0\":1,\"Q1\":2,\"Q2\":1,\"Q3\":3}","question_order":"[0,1,2,3]","trial_type":"survey-likert","trial_index":13,"time_elapsed":1070475,"internal_node_id":"0.0-12.0"},{"rt":20042.269999999786,"responses":"{\"Q0\":1,\"Q1\":1,\"Q2\":2,\"Q3\":0}","question_order":"[0,1,2,3]","trial_type":"survey-likert","trial_index":14,"time_elapsed":1090520,"internal_node_id":"0.0-13.0"},{"rt":25677.01999999932,"responses":"{\"Q0\":1,\"Q1\":1,\"Q2\":2,\"Q3\":2}","question_order":"[0,1,2,3]","trial_type":"survey-likert","trial_index":15,"time_elapsed":1116201,"internal_node_id":"0.0-14.0"},{"rt":9231.88499999931,"responses":"{\"Q0\":1,\"Q1\":2,\"Q2\":2}","question_order":"[0,1,2]","trial_type":"survey-likert","trial_index":16,"time_elapsed":1125435,"internal_node_id":"0.0-15.0"},{"view_history":"[{\"page_index\":0,\"viewing_time\":2192.1750000000466},{\"page_index\":1,\"viewing_time\":9222.980000000447},{\"page_index\":2,\"viewing_time\":38247.07499999949}]","rt":49662.81500000064,"trial_type":"instructions","trial_index":17,"time_elapsed":1175105,"internal_node_id":"0.0-16.0"},{"rt":1666.589999999851,"stimulus":"<p>Choose a box,</p>","button_pressed":1,"trial_type":"html-button-response","trial_index":18,"time_elapsed":1176776,"internal_node_id":"0.0-17.0-0.0"},{"rate":0.5503364999312345,"trial_type":"html-keyboard-response","trial_index":19,"time_elapsed":1176776,"internal_node_id":"0.0-17.0-1.0"},{"rt":null,"stimulus":"<div style=\"background-color:#6dce98\"><h1 style=\"background-color:MediumSeaGreen\" >You won a prize! Well done!</h1><div style=\"background-color:#6dce98\"><h1 style=\"background-color:MediumSeaGreen\" >Only 19 left to go!</h1><img id=\"box\" src=\"img/prizes/bear.png\"></img><img id=\"box\" src=\"img/empty/greenopenbox.png\"></img></div>","key_press":null,"trial_type":"html-keyboard-response","trial_index":19,"time_elapsed":1178279,"internal_node_id":"0.0-17.0-1.0"},{"rt":1127.4149999998044,"stimulus":"<p>Choose a box,</p>","button_pressed":2,"trial_type":"html-button-response","trial_index":20,"time_elapsed":1179409,"internal_node_id":"0.0-17.0-0.1"},{"rate":0.2843582059164907,"trial_type":"html-keyboard-response","trial_index":21,"time_elapsed":1179410,"internal_node_id":"0.0-17.0-1.1"},{"rt":null,"stimulus":"<div style=\"background-color:#6dce98\"><h1 style=\"background-color:MediumSeaGreen\" >You won a prize! Well done!</h1><div style=\"background-color:#6dce98\"><h1 style=\"background-color:MediumSeaGreen\" >Only 18 left to go!</h1><img id=\"box\" src=\"img/prizes/ring.png\"></img><img id=\"box\" src=\"img/empty/purpleopenbox.png\"></img></div>","key_press":null,"trial_type":"html-keyboard-response","trial_index":21,"time_elapsed":1180914,"internal_node_id":"0.0-17.0-1.1"},{"rt":1328.5850000001956,"stimulus":"<p>Choose a box,</p>","button_pressed":0,"trial_type":"html-button-response","trial_index":22,"time_elapsed":1182245,"internal_node_id":"0.0-17.0-0.2"},{"rate":0.16392565149044988,"trial_type":"html-keyboard-response","trial_index":23,"time_elapsed":1182245,"internal_node_id":"0.0-17.0-1.2"},{"rt":null,"stimulus":"<div style=\"background-color:#ff7157\"><h1 style=\"background-color:Tomato\">Bad luck! There was no prize in the box!</h1><h1 style=\"background-color:Tomato\">Remember, you need to keep going until you have 20 prizes!</h1><img id=\"box\" src=\"img/sad/blueopenboxsadthumb.png\"></img></div>","key_press":null,"trial_type":"html-keyboard-response","trial_index":23,"time_elapsed":1183748,"internal_node_id":"0.0-17.0-1.2"},{"view_history":"[{\"page_index\":0,\"viewing_time\":3859.0450000001583}]","rt":3859.5849999999627,"trial_type":"instructions","trial_index":24,"time_elapsed":1187624,"internal_node_id":"0.0-18.0"},{"rt":1102.4200000001583,"stimulus":"<p>Choose a box,</p>","button_pressed":2,"trial_type":"html-button-response","trial_index":25,"time_elapsed":1188729,"internal_node_id":"0.0-19.0-0.0"},{"rate":0.025827871173300494,"trial_type":"html-keyboard-response","trial_index":26,"time_elapsed":1188730,"internal_node_id":"0.0-19.0-1.0"},{"rt":null,"stimulus":"<div style=\"background-color:#ff7157\"><h1 style=\"background-color:Tomato\">Bad luck! There was no prize in the box!</h1><h1 style=\"background-color:Tomato\">Remember, you need to keep going until you have 20 prizes!</h1><img id=\"box\" src=\"img/sad/purpleopenboxsadthumb.png\"></img></div>","key_press":null,"trial_type":"html-keyboard-response","trial_index":26,"time_elapsed":1190232,"internal_node_id":"0.0-19.0-1.0"},{"rt":1080.3449999995064,"stimulus":"<p>Choose a box,</p>","button_pressed":3,"trial_type":"html-button-response","trial_index":27,"time_elapsed":1191314,"internal_node_id":"0.0-19.1-0.1"},{"rate":0.7925549731636017,"trial_type":"html-keyboard-response","trial_index":28,"time_elapsed":1191314,"internal_node_id":"0.0-19.1-1.1"},{"rt":null,"stimulus":"<div style=\"background-color:#6dce98\"><h1 style=\"background-color:MediumSeaGreen\" >You won a prize! Well done!</h1><div style=\"background-color:#6dce98\"><h1 style=\"background-color:MediumSeaGreen\" >Only 19 left to go!</h1><img id=\"box\" src=\"img/prizes/choc.png\"></img><img id=\"box\" src=\"img/empty/redopenbox.png\"></img></div>","key_press":null,"trial_type":"html-keyboard-response","trial_index":28,"time_elapsed":1192816,"internal_node_id":"0.0-19.1-1.1"},{"rt":896.8249999999534,"stimulus":"<p>Choose a box,</p>","button_pressed":0,"trial_type":"html-button-response","trial_index":29,"time_elapsed":1193714,"internal_node_id":"0.0-19.2-0.2"},{"rate":0.640510412339807,"trial_type":"html-keyboard-response","trial_index":30,"time_elapsed":1193715,"internal_node_id":"0.0-19.2-1.2"},{"rt":null,"stimulus":"<div style=\"background-color:#ff7157\"><h1 style=\"background-color:Tomato\">Bad luck! There was no prize in the box!</h1><h1 style=\"background-color:Tomato\">Remember, you need to keep going until you have 20 prizes!</h1><img id=\"box\" src=\"img/sad/blueopenboxsadthumb.png\"></img></div>","key_press":null,"trial_type":"html-keyboard-response","trial_index":30,"time_elapsed":1195218,"internal_node_id":"0.0-19.2-1.2"},{"rt":844.9649999993853,"stimulus":"<p>Choose a box,</p>","button_pressed":1,"trial_type":"html-button-response","trial_index":31,"time_elapsed":1196065,"internal_node_id":"0.0-19.3-0.3"},{"rate":0.17435600254596015,"trial_type":"html-keyboard-response","trial_index":32,"time_elapsed":1196065,"internal_node_id":"0.0-19.3-1.3"},{"rt":null,"stimulus":"<div style=\"background-color:#6dce98\"><h1 style=\"background-color:MediumSeaGreen\" >You won a prize! Well done!</h1><div style=\"background-color:#6dce98\"><h1 style=\"background-color:MediumSeaGreen\" >Only 18 left to go!</h1><img id=\"box\" src=\"img/prizes/flowers.png\"></img><img id=\"box\" src=\"img/empty/greenopenbox.png\"></img></div>","key_press":null,"trial_type":"html-keyboard-response","trial_index":32,"time_elapsed":1197581,"internal_node_id":"0.0-19.3-1.3"},{"rt":750.1149999999907,"stimulus":"<p>Choose a box,</p>","button_pressed":1,"trial_type":"html-button-response","trial_index":33,"time_elapsed":1198333,"internal_node_id":"0.0-19.4-0.4"},{"rate":0.17435600254596015,"trial_type":"html-keyboard-response","trial_index":34,"time_elapsed":1198334,"internal_node_id":"0.0-19.4-1.4"},{"rt":null,"stimulus":"<div style=\"background-color:#ff7157\"><h1 style=\"background-color:Tomato\">Bad luck! There was no prize in the box!</h1><h1 style=\"background-color:Tomato\">Remember, you need to keep going until you have 20 prizes!</h1><img id=\"box\" src=\"img/sad/greenopenboxsadthumb.png\"></img></div>","key_press":null,"trial_type":"html-keyboard-response","trial_index":34,"time_elapsed":1199836,"internal_node_id":"0.0-19.4-1.4"},{"rt":1084.4500000001863,"stimulus":"<p>Choose a box,</p>","button_pressed":2,"trial_type":"html-button-response","trial_index":35,"time_elapsed":1200923,"internal_node_id":"0.0-19.5-0.5"},{"rate":0.025827871173300494,"trial_type":"html-keyboard-response","trial_index":36,"time_elapsed":1200924,"internal_node_id":"0.0-19.5-1.5"},{"rt":null,"stimulus":"<div style=\"background-color:#ff7157\"><h1 style=\"background-color:Tomato\">Bad luck! There was no prize in the box!</h1><h1 style=\"background-color:Tomato\">Remember, you need to keep going until you have 20 prizes!</h1><img id=\"box\" src=\"img/sad/purpleopenboxsadthumb.png\"></img></div>","key_press":null,"trial_type":"html-keyboard-response","trial_index":36,"time_elapsed":1202426,"internal_node_id":"0.0-19.5-1.5"},{"rt":653.9050000002608,"stimulus":"<p>Choose a box,</p>","button_pressed":0,"trial_type":"html-button-response","trial_index":37,"time_elapsed":1203082,"internal_node_id":"0.0-19.6-0.6"},{"rate":0.640510412339807,"trial_type":"html-keyboard-response","trial_index":38,"time_elapsed":1203083,"internal_node_id":"0.0-19.6-1.6"},{"rt":null,"stimulus":"<div style=\"background-color:#6dce98\"><h1 style=\"background-color:MediumSeaGreen\" >You won a prize! Well done!</h1><div style=\"background-color:#6dce98\"><h1 style=\"background-color:MediumSeaGreen\" >Only 17 left to go!</h1><img id=\"box\" src=\"img/prizes/bear.png\"></img><img id=\"box\" src=\"img/empty/blueopenbox.png\"></img></div>","key_press":null,"trial_type":"html-keyboard-response","trial_index":38,"time_elapsed":1204595,"internal_node_id":"0.0-19.6-1.6"},{"rt":984.7399999997579,"stimulus":"<p>Choose a box,</p>","button_pressed":3,"trial_type":"html-button-response","trial_index":39,"time_elapsed":1205582,"internal_node_id":"0.0-19.7-0.7"},{"rate":0.7925549731636017,"trial_type":"html-keyboard-response","trial_index":40,"time_elapsed":1205583,"internal_node_id":"0.0-19.7-1.7"},{"rt":null,"stimulus":"<div style=\"background-color:#6dce98\"><h1 style=\"background-color:MediumSeaGreen\" >You won a prize! Well done!</h1><div style=\"background-color:#6dce98\"><h1 style=\"background-color:MediumSeaGreen\" >Only 16 left to go!</h1><img id=\"box\" src=\"img/prizes/duck.png\"></img><img id=\"box\" src=\"img/empty/redopenbox.png\"></img></div>","key_press":null,"trial_type":"html-keyboard-response","trial_index":40,"time_elapsed":1207088,"internal_node_id":"0.0-19.7-1.7"},{"rt":740.6049999999814,"stimulus":"<p>Choose a box,</p>","button_pressed":2,"trial_type":"html-button-response","trial_index":41,"time_elapsed":1207831,"internal_node_id":"0.0-19.8-0.8"},{"rate":0.025827871173300494,"trial_type":"html-keyboard-response","trial_index":42,"time_elapsed":1207831,"internal_node_id":"0.0-19.8-1.8"},{"rt":null,"stimulus":"<div style=\"background-color:#ff7157\"><h1 style=\"background-color:Tomato\">Bad luck! There was no prize in the box!</h1><h1 style=\"background-color:Tomato\">Remember, you need to keep going until you have 20 prizes!</h1><img id=\"box\" src=\"img/sad/purpleopenboxsadthumb.png\"></img></div>","key_press":null,"trial_type":"html-keyboard-response","trial_index":42,"time_elapsed":1209345,"internal_node_id":"0.0-19.8-1.8"},{"rt":796.7649999998976,"stimulus":"<p>Choose a box,</p>","button_pressed":1,"trial_type":"html-button-response","trial_index":43,"time_elapsed":1210144,"internal_node_id":"0.0-19.9-0.9"},{"rate":0.17435600254596015,"trial_type":"html-keyboard-response","trial_index":44,"time_elapsed":1210144,"internal_node_id":"0.0-19.9-1.9"},{"rt":null,"stimulus":"<div style=\"background-color:#ff7157\"><h1 style=\"background-color:Tomato\">Bad luck! There was no prize in the box!</h1><h1 style=\"background-color:Tomato\">Remember, you need to keep going until you have 20 prizes!</h1><img id=\"box\" src=\"img/sad/greenopenboxsadthumb.png\"></img></div>","key_press":null,"trial_type":"html-keyboard-response","trial_index":44,"time_elapsed":1211646,"internal_node_id":"0.0-19.9-1.9"},{"rt":746.3699999996461,"stimulus":"<p>Choose a box,</p>","button_pressed":3,"trial_type":"html-button-response","trial_index":45,"time_elapsed":1212395,"internal_node_id":"0.0-19.10-0.10"},{"rate":0.7925549731636017,"trial_type":"html-keyboard-response","trial_index":46,"time_elapsed":1212396,"internal_node_id":"0.0-19.10-1.10"},{"rt":null,"stimulus":"<div style=\"background-color:#6dce98\"><h1 style=\"background-color:MediumSeaGreen\" >You won a prize! Well done!</h1><div style=\"background-color:#6dce98\"><h1 style=\"background-color:MediumSeaGreen\" >Only 15 left to go!</h1><img id=\"box\" src=\"img/prizes/ring.png\"></img><img id=\"box\" src=\"img/empty/redopenbox.png\"></img></div>","key_press":null,"trial_type":"html-keyboard-response","trial_index":46,"time_elapsed":1213912,"internal_node_id":"0.0-19.10-1.10"},{"rt":1000.0099999997765,"stimulus":"<p>Choose a box,</p>","button_pressed":0,"trial_type":"html-button-response","trial_index":47,"time_elapsed":1214914,"internal_node_id":"0.0-19.11-0.11"},{"rate":0.640510412339807,"trial_type":"html-keyboard-response","trial_index":48,"time_elapsed":1214914,"internal_node_id":"0.0-19.11-1.11"},{"rt":null,"stimulus":"<div style=\"background-color:#6dce98\"><h1 style=\"background-color:MediumSeaGreen\" >You won a prize! Well done!</h1><div style=\"background-color:#6dce98\"><h1 style=\"background-color:MediumSeaGreen\" >Only 14 left to go!</h1><img id=\"box\" src=\"img/prizes/choc.png\"></img><img id=\"box\" src=\"img/empty/blueopenbox.png\"></img></div>","key_press":null,"trial_type":"html-keyboard-response","trial_index":48,"time_elapsed":1216431,"internal_node_id":"0.0-19.11-1.11"},{"rt":826.0249999992084,"stimulus":"<p>Choose a box,</p>","button_pressed":2,"trial_type":"html-button-response","trial_index":49,"time_elapsed":1217259,"internal_node_id":"0.0-19.12-0.12"},{"rate":0.025827871173300494,"trial_type":"html-keyboard-response","trial_index":50,"time_elapsed":1217259,"internal_node_id":"0.0-19.12-1.12"},{"rt":null,"stimulus":"<div style=\"background-color:#ff7157\"><h1 style=\"background-color:Tomato\">Bad luck! There was no prize in the box!</h1><h1 style=\"background-color:Tomato\">Remember, you need to keep going until you have 20 prizes!</h1><img id=\"box\" src=\"img/sad/purpleopenboxsadthumb.png\"></img></div>","key_press":null,"trial_type":"html-keyboard-response","trial_index":50,"time_elapsed":1218761,"internal_node_id":"0.0-19.12-1.12"},{"rt":658.0850000001956,"stimulus":"<p>Choose a box,</p>","button_pressed":1,"trial_type":"html-button-response","trial_index":51,"time_elapsed":1219422,"internal_node_id":"0.0-19.13-0.13"},{"rate":0.17435600254596015,"trial_type":"html-keyboard-response","trial_index":52,"time_elapsed":1219422,"internal_node_id":"0.0-19.13-1.13"},{"rt":null,"stimulus":"<div style=\"background-color:#ff7157\"><h1 style=\"background-color:Tomato\">Bad luck! There was no prize in the box!</h1><h1 style=\"background-color:Tomato\">Remember, you need to keep going until you have 20 prizes!</h1><img id=\"box\" src=\"img/sad/greenopenboxsadthumb.png\"></img></div>","key_press":null,"trial_type":"html-keyboard-response","trial_index":52,"time_elapsed":1220925,"internal_node_id":"0.0-19.13-1.13"},{"rt":844.6850000000559,"stimulus":"<p>Choose a box,</p>","button_pressed":1,"trial_type":"html-button-response","trial_index":53,"time_elapsed":1221772,"internal_node_id":"0.0-19.14-0.14"},{"rate":0.17435600254596015,"trial_type":"html-keyboard-response","trial_index":54,"time_elapsed":1221772,"internal_node_id":"0.0-19.14-1.14"},{"rt":null,"stimulus":"<div style=\"background-color:#ff7157\"><h1 style=\"background-color:Tomato\">Bad luck! There was no prize in the box!</h1><h1 style=\"background-color:Tomato\">Remember, you need to keep going until you have 20 prizes!</h1><img id=\"box\" src=\"img/sad/greenopenboxsadthumb.png\"></img></div>","key_press":null,"trial_type":"html-keyboard-response","trial_index":54,"time_elapsed":1223289,"internal_node_id":"0.0-19.14-1.14"},{"rt":677.8249999997206,"stimulus":"<p>Choose a box,</p>","button_pressed":3,"trial_type":"html-button-response","trial_index":55,"time_elapsed":1223969,"internal_node_id":"0.0-19.15-0.15"},{"rate":0.7925549731636017,"trial_type":"html-keyboard-response","trial_index":56,"time_elapsed":1223970,"internal_node_id":"0.0-19.15-1.15"},{"rt":null,"stimulus":"<div style=\"background-color:#ff7157\"><h1 style=\"background-color:Tomato\">Bad luck! There was no prize in the box!</h1><h1 style=\"background-color:Tomato\">Remember, you need to keep going until you have 20 prizes!</h1><img id=\"box\" src=\"img/sad/redopenboxsadthumb.png\"></img></div>","key_press":null,"trial_type":"html-keyboard-response","trial_index":56,"time_elapsed":1225482,"internal_node_id":"0.0-19.15-1.15"},{"rt":702.8700000001118,"stimulus":"<p>Choose a box,</p>","button_pressed":0,"trial_type":"html-button-response","trial_index":57,"time_elapsed":1226187,"internal_node_id":"0.0-19.16-0.16"},{"rate":0.640510412339807,"trial_type":"html-keyboard-response","trial_index":58,"time_elapsed":1226188,"internal_node_id":"0.0-19.16-1.16"},{"rt":null,"stimulus":"<div style=\"background-color:#ff7157\"><h1 style=\"background-color:Tomato\">Bad luck! There was no prize in the box!</h1><h1 style=\"background-color:Tomato\">Remember, you need to keep going until you have 20 prizes!</h1><img id=\"box\" src=\"img/sad/blueopenboxsadthumb.png\"></img></div>","key_press":null,"trial_type":"html-keyboard-response","trial_index":58,"time_elapsed":1227689,"internal_node_id":"0.0-19.16-1.16"},{"rt":691.3250000006519,"stimulus":"<p>Choose a box,</p>","button_pressed":1,"trial_type":"html-button-response","trial_index":59,"time_elapsed":1228383,"internal_node_id":"0.0-19.17-0.17"},{"rate":0.17435600254596015,"trial_type":"html-keyboard-response","trial_index":60,"time_elapsed":1228383,"internal_node_id":"0.0-19.17-1.17"},{"rt":null,"stimulus":"<div style=\"background-color:#ff7157\"><h1 style=\"background-color:Tomato\">Bad luck! There was no prize in the box!</h1><h1 style=\"background-color:Tomato\">Remember, you need to keep going until you have 20 prizes!</h1><img id=\"box\" src=\"img/sad/greenopenboxsadthumb.png\"></img></div>","key_press":null,"trial_type":"html-keyboard-response","trial_index":60,"time_elapsed":1229885,"internal_node_id":"0.0-19.17-1.17"},{"rt":672.3449999999721,"stimulus":"<p>Choose a box,</p>","button_pressed":2,"trial_type":"html-button-response","trial_index":61,"time_elapsed":1230560,"internal_node_id":"0.0-19.18-0.18"},{"rate":0.025827871173300494,"trial_type":"html-keyboard-response","trial_index":62,"time_elapsed":1230560,"internal_node_id":"0.0-19.18-1.18"},{"rt":null,"stimulus":"<div style=\"background-color:#ff7157\"><h1 style=\"background-color:Tomato\">Bad luck! There was no prize in the box!</h1><h1 style=\"background-color:Tomato\">Remember, you need to keep going until you have 20 prizes!</h1><img id=\"box\" src=\"img/sad/purpleopenboxsadthumb.png\"></img></div>","key_press":null,"trial_type":"html-keyboard-response","trial_index":62,"time_elapsed":1232062,"internal_node_id":"0.0-19.18-1.18"},{"rt":643.035000000149,"stimulus":"<p>Choose a box,</p>","button_pressed":3,"trial_type":"html-button-response","trial_index":63,"time_elapsed":1232708,"internal_node_id":"0.0-19.19-0.19"},{"rate":0.7925549731636017,"trial_type":"html-keyboard-response","trial_index":64,"time_elapsed":1232709,"internal_node_id":"0.0-19.19-1.19"},{"rt":null,"stimulus":"<div style=\"background-color:#6dce98\"><h1 style=\"background-color:MediumSeaGreen\" >You won a prize! Well done!</h1><div style=\"background-color:#6dce98\"><h1 style=\"background-color:MediumSeaGreen\" >Only 13 left to go!</h1><img id=\"box\" src=\"img/prizes/beachball.png\"></img><img id=\"box\" src=\"img/empty/redopenbox.png\"></img></div>","key_press":null,"trial_type":"html-keyboard-response","trial_index":64,"time_elapsed":1234214,"internal_node_id":"0.0-19.19-1.19"},{"rt":636.7699999990873,"stimulus":"<p>Choose a box,</p>","button_pressed":3,"trial_type":"html-button-response","trial_index":65,"time_elapsed":1234853,"internal_node_id":"0.0-19.20-0.20"},{"rate":0.7925549731636017,"trial_type":"html-keyboard-response","trial_index":66,"time_elapsed":1234853,"internal_node_id":"0.0-19.20-1.20"},{"rt":null,"stimulus":"<div style=\"background-color:#6dce98\"><h1 style=\"background-color:MediumSeaGreen\" >You won a prize! Well done!</h1><div style=\"background-color:#6dce98\"><h1 style=\"background-color:MediumSeaGreen\" >Only 12 left to go!</h1><img id=\"box\" src=\"img/prizes/lolipop.png\"></img><img id=\"box\" src=\"img/empty/redopenbox.png\"></img></div>","key_press":null,"trial_type":"html-keyboard-response","trial_index":66,"time_elapsed":1236360,"internal_node_id":"0.0-19.20-1.20"},{"rt":1788.1399999996647,"stimulus":"<p>Choose a box,</p>","button_pressed":1,"trial_type":"html-button-response","trial_index":67,"time_elapsed":1238152,"internal_node_id":"0.0-19.21-0.21"},{"rate":0.17435600254596015,"trial_type":"html-keyboard-response","trial_index":68,"time_elapsed":1238152,"internal_node_id":"0.0-19.21-1.21"},{"rt":null,"stimulus":"<div style=\"background-color:#ff7157\"><h1 style=\"background-color:Tomato\">Bad luck! There was no prize in the box!</h1><h1 style=\"background-color:Tomato\">Remember, you need to keep going until you have 20 prizes!</h1><img id=\"box\" src=\"img/sad/greenopenboxsadthumb.png\"></img></div>","key_press":null,"trial_type":"html-keyboard-response","trial_index":68,"time_elapsed":1239655,"internal_node_id":"0.0-19.21-1.21"},{"rt":626.894999999553,"stimulus":"<p>Choose a box,</p>","button_pressed":0,"trial_type":"html-button-response","trial_index":69,"time_elapsed":1240285,"internal_node_id":"0.0-19.22-0.22"},{"rate":0.640510412339807,"trial_type":"html-keyboard-response","trial_index":70,"time_elapsed":1240285,"internal_node_id":"0.0-19.22-1.22"},{"rt":null,"stimulus":"<div style=\"background-color:#ff7157\"><h1 style=\"background-color:Tomato\">Bad luck! There was no prize in the box!</h1><h1 style=\"background-color:Tomato\">Remember, you need to keep going until you have 20 prizes!</h1><img id=\"box\" src=\"img/sad/blueopenboxsadthumb.png\"></img></div>","key_press":null,"trial_type":"html-keyboard-response","trial_index":70,"time_elapsed":1241799,"internal_node_id":"0.0-19.22-1.22"},{"rt":790.820000000298,"stimulus":"<p>Choose a box,</p>","button_pressed":2,"trial_type":"html-button-response","trial_index":71,"time_elapsed":1242594,"internal_node_id":"0.0-19.23-0.23"},{"rate":0.025827871173300494,"trial_type":"html-keyboard-response","trial_index":72,"time_elapsed":1242595,"internal_node_id":"0.0-19.23-1.23"},{"rt":null,"stimulus":"<div style=\"background-color:#ff7157\"><h1 style=\"background-color:Tomato\">Bad luck! There was no prize in the box!</h1><h1 style=\"background-color:Tomato\">Remember, you need to keep going until you have 20 prizes!</h1><img id=\"box\" src=\"img/sad/purpleopenboxsadthumb.png\"></img></div>","key_press":null,"trial_type":"html-keyboard-response","trial_index":72,"time_elapsed":1244096,"internal_node_id":"0.0-19.23-1.23"},{"rt":660.8550000002142,"stimulus":"<p>Choose a box,</p>","button_pressed":1,"trial_type":"html-button-response","trial_index":73,"time_elapsed":1244760,"internal_node_id":"0.0-19.24-0.24"},{"rate":0.17435600254596015,"trial_type":"html-keyboard-response","trial_index":74,"time_elapsed":1244760,"internal_node_id":"0.0-19.24-1.24"},{"rt":null,"stimulus":"<div style=\"background-color:#ff7157\"><h1 style=\"background-color:Tomato\">Bad luck! There was no prize in the box!</h1><h1 style=\"background-color:Tomato\">Remember, you need to keep going until you have 20 prizes!</h1><img id=\"box\" src=\"img/sad/greenopenboxsadthumb.png\"></img></div>","key_press":null,"trial_type":"html-keyboard-response","trial_index":74,"time_elapsed":1246263,"internal_node_id":"0.0-19.24-1.24"},{"rt":566.8449999992736,"stimulus":"<p>Choose a box,</p>","button_pressed":3,"trial_type":"html-button-response","trial_index":75,"time_elapsed":1246832,"internal_node_id":"0.0-19.25-0.25"},{"rate":0.7925549731636017,"trial_type":"html-keyboard-response","trial_index":76,"time_elapsed":1246832,"internal_node_id":"0.0-19.25-1.25"},{"rt":null,"stimulus":"<div style=\"background-color:#6dce98\"><h1 style=\"background-color:MediumSeaGreen\" >You won a prize! Well done!</h1><div style=\"background-color:#6dce98\"><h1 style=\"background-color:MediumSeaGreen\" >Only 11 left to go!</h1><img id=\"box\" src=\"img/prizes/duck.png\"></img><img id=\"box\" src=\"img/empty/redopenbox.png\"></img></div>","key_press":null,"trial_type":"html-keyboard-response","trial_index":76,"time_elapsed":1248334,"internal_node_id":"0.0-19.25-1.25"},{"rt":1025.6850000005215,"stimulus":"<p>Choose a box,</p>","button_pressed":0,"trial_type":"html-button-response","trial_index":77,"time_elapsed":1249362,"internal_node_id":"0.0-19.26-0.26"},{"rate":0.640510412339807,"trial_type":"html-keyboard-response","trial_index":78,"time_elapsed":1249362,"internal_node_id":"0.0-19.26-1.26"},{"rt":null,"stimulus":"<div style=\"background-color:#ff7157\"><h1 style=\"background-color:Tomato\">Bad luck! There was no prize in the box!</h1><h1 style=\"background-color:Tomato\">Remember, you need to keep going until you have 20 prizes!</h1><img id=\"box\" src=\"img/sad/blueopenboxsadthumb.png\"></img></div>","key_press":null,"trial_type":"html-keyboard-response","trial_index":78,"time_elapsed":1250865,"internal_node_id":"0.0-19.26-1.26"},{"rt":552.644999999553,"stimulus":"<p>Choose a box,</p>","button_pressed":3,"trial_type":"html-button-response","trial_index":79,"time_elapsed":1251421,"internal_node_id":"0.0-19.27-0.27"},{"rate":0.7925549731636017,"trial_type":"html-keyboard-response","trial_index":80,"time_elapsed":1251421,"internal_node_id":"0.0-19.27-1.27"},{"rt":null,"stimulus":"<div style=\"background-color:#6dce98\"><h1 style=\"background-color:MediumSeaGreen\" >You won a prize! Well done!</h1><div style=\"background-color:#6dce98\"><h1 style=\"background-color:MediumSeaGreen\" >Only 10 left to go!</h1><img id=\"box\" src=\"img/prizes/ring.png\"></img><img id=\"box\" src=\"img/empty/redopenbox.png\"></img></div>","key_press":null,"trial_type":"html-keyboard-response","trial_index":80,"time_elapsed":1252937,"internal_node_id":"0.0-19.27-1.27"},{"rt":924.2549999998882,"stimulus":"<p>Choose a box,</p>","button_pressed":3,"trial_type":"html-button-response","trial_index":81,"time_elapsed":1253863,"internal_node_id":"0.0-19.28-0.28"},{"rate":0.7925549731636017,"trial_type":"html-keyboard-response","trial_index":82,"time_elapsed":1253863,"internal_node_id":"0.0-19.28-1.28"},{"rt":null,"stimulus":"<div style=\"background-color:#6dce98\"><h1 style=\"background-color:MediumSeaGreen\" >You won a prize! Well done!</h1><div style=\"background-color:#6dce98\"><h1 style=\"background-color:MediumSeaGreen\" >Only 9 left to go!</h1><img id=\"box\" src=\"img/prizes/flowers.png\"></img><img id=\"box\" src=\"img/empty/redopenbox.png\"></img></div>","key_press":null,"trial_type":"html-keyboard-response","trial_index":82,"time_elapsed":1255372,"internal_node_id":"0.0-19.28-1.28"},{"rt":1278.5549999999348,"stimulus":"<p>Choose a box,</p>","button_pressed":3,"trial_type":"html-button-response","trial_index":83,"time_elapsed":1256653,"internal_node_id":"0.0-19.29-0.29"},{"rate":0.7925549731636017,"trial_type":"html-keyboard-response","trial_index":84,"time_elapsed":1256653,"internal_node_id":"0.0-19.29-1.29"},{"rt":null,"stimulus":"<div style=\"background-color:#ff7157\"><h1 style=\"background-color:Tomato\">Bad luck! There was no prize in the box!</h1><h1 style=\"background-color:Tomato\">Remember, you need to keep going until you have 20 prizes!</h1><img id=\"box\" src=\"img/sad/redopenboxsadthumb.png\"></img></div>","key_press":null,"trial_type":"html-keyboard-response","trial_index":84,"time_elapsed":1258169,"internal_node_id":"0.0-19.29-1.29"},{"rt":757.3449999999721,"stimulus":"<p>Choose a box,</p>","button_pressed":1,"trial_type":"html-button-response","trial_index":85,"time_elapsed":1258929,"internal_node_id":"0.0-19.30-0.30"},{"rate":0.17435600254596015,"trial_type":"html-keyboard-response","trial_index":86,"time_elapsed":1258929,"internal_node_id":"0.0-19.30-1.30"},{"rt":null,"stimulus":"<div style=\"background-color:#ff7157\"><h1 style=\"background-color:Tomato\">Bad luck! There was no prize in the box!</h1><h1 style=\"background-color:Tomato\">Remember, you need to keep going until you have 20 prizes!</h1><img id=\"box\" src=\"img/sad/greenopenboxsadthumb.png\"></img></div>","key_press":null,"trial_type":"html-keyboard-response","trial_index":86,"time_elapsed":1260445,"internal_node_id":"0.0-19.30-1.30"},{"rt":567.3800000005867,"stimulus":"<p>Choose a box,</p>","button_pressed":2,"trial_type":"html-button-response","trial_index":87,"time_elapsed":1261014,"internal_node_id":"0.0-19.31-0.31"},{"rate":0.025827871173300494,"trial_type":"html-keyboard-response","trial_index":88,"time_elapsed":1261014,"internal_node_id":"0.0-19.31-1.31"},{"rt":null,"stimulus":"<div style=\"background-color:#ff7157\"><h1 style=\"background-color:Tomato\">Bad luck! There was no prize in the box!</h1><h1 style=\"background-color:Tomato\">Remember, you need to keep going until you have 20 prizes!</h1><img id=\"box\" src=\"img/sad/purpleopenboxsadthumb.png\"></img></div>","key_press":null,"trial_type":"html-keyboard-response","trial_index":88,"time_elapsed":1262525,"internal_node_id":"0.0-19.31-1.31"},{"rt":619.7350000001024,"stimulus":"<p>Choose a box,</p>","button_pressed":0,"trial_type":"html-button-response","trial_index":89,"time_elapsed":1263147,"internal_node_id":"0.0-19.32-0.32"},{"rate":0.640510412339807,"trial_type":"html-keyboard-response","trial_index":90,"time_elapsed":1263148,"internal_node_id":"0.0-19.32-1.32"},{"rt":null,"stimulus":"<div style=\"background-color:#6dce98\"><h1 style=\"background-color:MediumSeaGreen\" >You won a prize! Well done!</h1><div style=\"background-color:#6dce98\"><h1 style=\"background-color:MediumSeaGreen\" >Only 8 left to go!</h1><img id=\"box\" src=\"img/prizes/ring.png\"></img><img id=\"box\" src=\"img/empty/blueopenbox.png\"></img></div>","key_press":null,"trial_type":"html-keyboard-response","trial_index":90,"time_elapsed":1264650,"internal_node_id":"0.0-19.32-1.32"},{"rt":658.9149999998044,"stimulus":"<p>Choose a box,</p>","button_pressed":0,"trial_type":"html-button-response","trial_index":91,"time_elapsed":1265312,"internal_node_id":"0.0-19.33-0.33"},{"rate":0.640510412339807,"trial_type":"html-keyboard-response","trial_index":92,"time_elapsed":1265312,"internal_node_id":"0.0-19.33-1.33"},{"rt":null,"stimulus":"<div style=\"background-color:#6dce98\"><h1 style=\"background-color:MediumSeaGreen\" >You won a prize! Well done!</h1><div style=\"background-color:#6dce98\"><h1 style=\"background-color:MediumSeaGreen\" >Only 7 left to go!</h1><img id=\"box\" src=\"img/prizes/coins.png\"></img><img id=\"box\" src=\"img/empty/blueopenbox.png\"></img></div>","key_press":null,"trial_type":"html-keyboard-response","trial_index":92,"time_elapsed":1266815,"internal_node_id":"0.0-19.33-1.33"},{"rt":1285.2000000001863,"stimulus":"<p>Choose a box,</p>","button_pressed":2,"trial_type":"html-button-response","trial_index":93,"time_elapsed":1268102,"internal_node_id":"0.0-19.34-0.34"},{"rate":0.025827871173300494,"trial_type":"html-keyboard-response","trial_index":94,"time_elapsed":1268102,"internal_node_id":"0.0-19.34-1.34"},{"rt":null,"stimulus":"<div style=\"background-color:#ff7157\"><h1 style=\"background-color:Tomato\">Bad luck! There was no prize in the box!</h1><h1 style=\"background-color:Tomato\">Remember, you need to keep going until you have 20 prizes!</h1><img id=\"box\" src=\"img/sad/purpleopenboxsadthumb.png\"></img></div>","key_press":null,"trial_type":"html-keyboard-response","trial_index":94,"time_elapsed":1269604,"internal_node_id":"0.0-19.34-1.34"},{"rt":677.2949999994598,"stimulus":"<p>Choose a box,</p>","button_pressed":2,"trial_type":"html-button-response","trial_index":95,"time_elapsed":1270284,"internal_node_id":"0.0-19.35-0.35"},{"rate":0.025827871173300494,"trial_type":"html-keyboard-response","trial_index":96,"time_elapsed":1270284,"internal_node_id":"0.0-19.35-1.35"},{"rt":null,"stimulus":"<div style=\"background-color:#ff7157\"><h1 style=\"background-color:Tomato\">Bad luck! There was no prize in the box!</h1><h1 style=\"background-color:Tomato\">Remember, you need to keep going until you have 20 prizes!</h1><img id=\"box\" src=\"img/sad/purpleopenboxsadthumb.png\"></img></div>","key_press":null,"trial_type":"html-keyboard-response","trial_index":96,"time_elapsed":1271799,"internal_node_id":"0.0-19.35-1.35"},{"rt":575.6350000000093,"stimulus":"<p>Choose a box,</p>","button_pressed":2,"trial_type":"html-button-response","trial_index":97,"time_elapsed":1272377,"internal_node_id":"0.0-19.36-0.36"},{"rate":0.025827871173300494,"trial_type":"html-keyboard-response","trial_index":98,"time_elapsed":1272378,"internal_node_id":"0.0-19.36-1.36"},{"rt":null,"stimulus":"<div style=\"background-color:#ff7157\"><h1 style=\"background-color:Tomato\">Bad luck! There was no prize in the box!</h1><h1 style=\"background-color:Tomato\">Remember, you need to keep going until you have 20 prizes!</h1><img id=\"box\" src=\"img/sad/purpleopenboxsadthumb.png\"></img></div>","key_press":null,"trial_type":"html-keyboard-response","trial_index":98,"time_elapsed":1273894,"internal_node_id":"0.0-19.36-1.36"},{"rt":591.339999999851,"stimulus":"<p>Choose a box,</p>","button_pressed":2,"trial_type":"html-button-response","trial_index":99,"time_elapsed":1274488,"internal_node_id":"0.0-19.37-0.37"},{"rate":0.025827871173300494,"trial_type":"html-keyboard-response","trial_index":100,"time_elapsed":1274488,"internal_node_id":"0.0-19.37-1.37"},{"rt":null,"stimulus":"<div style=\"background-color:#ff7157\"><h1 style=\"background-color:Tomato\">Bad luck! There was no prize in the box!</h1><h1 style=\"background-color:Tomato\">Remember, you need to keep going until you have 20 prizes!</h1><img id=\"box\" src=\"img/sad/purpleopenboxsadthumb.png\"></img></div>","key_press":null,"trial_type":"html-keyboard-response","trial_index":100,"time_elapsed":1276001,"internal_node_id":"0.0-19.37-1.37"},{"rt":714.5250000003725,"stimulus":"<p>Choose a box,</p>","button_pressed":2,"trial_type":"html-button-response","trial_index":101,"time_elapsed":1276717,"internal_node_id":"0.0-19.38-0.38"},{"rate":0.025827871173300494,"trial_type":"html-keyboard-response","trial_index":102,"time_elapsed":1276718,"internal_node_id":"0.0-19.38-1.38"},{"rt":null,"stimulus":"<div style=\"background-color:#ff7157\"><h1 style=\"background-color:Tomato\">Bad luck! There was no prize in the box!</h1><h1 style=\"background-color:Tomato\">Remember, you need to keep going until you have 20 prizes!</h1><img id=\"box\" src=\"img/sad/purpleopenboxsadthumb.png\"></img></div>","key_press":null,"trial_type":"html-keyboard-response","trial_index":102,"time_elapsed":1278219,"internal_node_id":"0.0-19.38-1.38"},{"rt":662.7299999999814,"stimulus":"<p>Choose a box,</p>","button_pressed":1,"trial_type":"html-button-response","trial_index":103,"time_elapsed":1278884,"internal_node_id":"0.0-19.39-0.39"},{"rate":0.17435600254596015,"trial_type":"html-keyboard-response","trial_index":104,"time_elapsed":1278884,"internal_node_id":"0.0-19.39-1.39"},{"rt":null,"stimulus":"<div style=\"background-color:#ff7157\"><h1 style=\"background-color:Tomato\">Bad luck! There was no prize in the box!</h1><h1 style=\"background-color:Tomato\">Remember, you need to keep going until you have 20 prizes!</h1><img id=\"box\" src=\"img/sad/greenopenboxsadthumb.png\"></img></div>","key_press":null,"trial_type":"html-keyboard-response","trial_index":104,"time_elapsed":1280390,"internal_node_id":"0.0-19.39-1.39"},{"rt":531.7999999998137,"stimulus":"<p>Choose a box,</p>","button_pressed":3,"trial_type":"html-button-response","trial_index":105,"time_elapsed":1280924,"internal_node_id":"0.0-19.40-0.40"},{"rate":0.7925549731636017,"trial_type":"html-keyboard-response","trial_index":106,"time_elapsed":1280924,"internal_node_id":"0.0-19.40-1.40"},{"rt":null,"stimulus":"<div style=\"background-color:#6dce98\"><h1 style=\"background-color:MediumSeaGreen\" >You won a prize! Well done!</h1><div style=\"background-color:#6dce98\"><h1 style=\"background-color:MediumSeaGreen\" >Only 6 left to go!</h1><img id=\"box\" src=\"img/prizes/coins.png\"></img><img id=\"box\" src=\"img/empty/redopenbox.png\"></img></div>","key_press":null,"trial_type":"html-keyboard-response","trial_index":106,"time_elapsed":1282433,"internal_node_id":"0.0-19.40-1.40"},{"rt":553.8799999994226,"stimulus":"<p>Choose a box,</p>","button_pressed":3,"trial_type":"html-button-response","trial_index":107,"time_elapsed":1282989,"internal_node_id":"0.0-19.41-0.41"},{"rate":0.7925549731636017,"trial_type":"html-keyboard-response","trial_index":108,"time_elapsed":1282990,"internal_node_id":"0.0-19.41-1.41"},{"rt":null,"stimulus":"<div style=\"background-color:#6dce98\"><h1 style=\"background-color:MediumSeaGreen\" >You won a prize! Well done!</h1><div style=\"background-color:#6dce98\"><h1 style=\"background-color:MediumSeaGreen\" >Only 5 left to go!</h1><img id=\"box\" src=\"img/prizes/coins.png\"></img><img id=\"box\" src=\"img/empty/redopenbox.png\"></img></div>","key_press":null,"trial_type":"html-keyboard-response","trial_index":108,"time_elapsed":1284492,"internal_node_id":"0.0-19.41-1.41"},{"rt":585.4949999994133,"stimulus":"<p>Choose a box,</p>","button_pressed":3,"trial_type":"html-button-response","trial_index":109,"time_elapsed":1285081,"internal_node_id":"0.0-19.42-0.42"},{"rate":0.7925549731636017,"trial_type":"html-keyboard-response","trial_index":110,"time_elapsed":1285081,"internal_node_id":"0.0-19.42-1.42"},{"rt":null,"stimulus":"<div style=\"background-color:#6dce98\"><h1 style=\"background-color:MediumSeaGreen\" >You won a prize! Well done!</h1><div style=\"background-color:#6dce98\"><h1 style=\"background-color:MediumSeaGreen\" >Only 4 left to go!</h1><img id=\"box\" src=\"img/prizes/ring.png\"></img><img id=\"box\" src=\"img/empty/redopenbox.png\"></img></div>","key_press":null,"trial_type":"html-keyboard-response","trial_index":110,"time_elapsed":1286588,"internal_node_id":"0.0-19.42-1.42"},{"rt":528.690000000177,"stimulus":"<p>Choose a box,</p>","button_pressed":3,"trial_type":"html-button-response","trial_index":111,"time_elapsed":1287119,"internal_node_id":"0.0-19.43-0.43"},{"rate":0.7925549731636017,"trial_type":"html-keyboard-response","trial_index":112,"time_elapsed":1287120,"internal_node_id":"0.0-19.43-1.43"},{"rt":null,"stimulus":"<div style=\"background-color:#6dce98\"><h1 style=\"background-color:MediumSeaGreen\" >You won a prize! Well done!</h1><div style=\"background-color:#6dce98\"><h1 style=\"background-color:MediumSeaGreen\" >Only 3 left to go!</h1><img id=\"box\" src=\"img/prizes/bear.png\"></img><img id=\"box\" src=\"img/empty/redopenbox.png\"></img></div>","key_press":null,"trial_type":"html-keyboard-response","trial_index":112,"time_elapsed":1288622,"internal_node_id":"0.0-19.43-1.43"},{"rt":555.3449999999721,"stimulus":"<p>Choose a box,</p>","button_pressed":3,"trial_type":"html-button-response","trial_index":113,"time_elapsed":1289180,"internal_node_id":"0.0-19.44-0.44"},{"rate":0.7925549731636017,"trial_type":"html-keyboard-response","trial_index":114,"time_elapsed":1289180,"internal_node_id":"0.0-19.44-1.44"},{"rt":null,"stimulus":"<div style=\"background-color:#ff7157\"><h1 style=\"background-color:Tomato\">Bad luck! There was no prize in the box!</h1><h1 style=\"background-color:Tomato\">Remember, you need to keep going until you have 20 prizes!</h1><img id=\"box\" src=\"img/sad/redopenboxsadthumb.png\"></img></div>","key_press":null,"trial_type":"html-keyboard-response","trial_index":114,"time_elapsed":1290696,"internal_node_id":"0.0-19.44-1.44"},{"rt":680.8799999998882,"stimulus":"<p>Choose a box,</p>","button_pressed":0,"trial_type":"html-button-response","trial_index":115,"time_elapsed":1291379,"internal_node_id":"0.0-19.45-0.45"},{"rate":0.640510412339807,"trial_type":"html-keyboard-response","trial_index":116,"time_elapsed":1291380,"internal_node_id":"0.0-19.45-1.45"},{"rt":null,"stimulus":"<div style=\"background-color:#6dce98\"><h1 style=\"background-color:MediumSeaGreen\" >You won a prize! Well done!</h1><div style=\"background-color:#6dce98\"><h1 style=\"background-color:MediumSeaGreen\" >Only 2 left to go!</h1><img id=\"box\" src=\"img/prizes/bear.png\"></img><img id=\"box\" src=\"img/empty/blueopenbox.png\"></img></div>","key_press":null,"trial_type":"html-keyboard-response","trial_index":116,"time_elapsed":1292889,"internal_node_id":"0.0-19.45-1.45"},{"rt":594.3800000003539,"stimulus":"<p>Choose a box,</p>","button_pressed":0,"trial_type":"html-button-response","trial_index":117,"time_elapsed":1293486,"internal_node_id":"0.0-19.46-0.46"},{"rate":0.640510412339807,"trial_type":"html-keyboard-response","trial_index":118,"time_elapsed":1293486,"internal_node_id":"0.0-19.46-1.46"},{"rt":null,"stimulus":"<div style=\"background-color:#6dce98\"><h1 style=\"background-color:MediumSeaGreen\" >You won a prize! Well done!</h1><div style=\"background-color:#6dce98\"><h1 style=\"background-color:MediumSeaGreen\" >Only 1 left to go!</h1><img id=\"box\" src=\"img/prizes/beachball.png\"></img><img id=\"box\" src=\"img/empty/blueopenbox.png\"></img></div>","key_press":null,"trial_type":"html-keyboard-response","trial_index":118,"time_elapsed":1294991,"internal_node_id":"0.0-19.46-1.46"},{"rt":656.285000000149,"stimulus":"<p>Choose a box,</p>","button_pressed":0,"trial_type":"html-button-response","trial_index":119,"time_elapsed":1295649,"internal_node_id":"0.0-19.47-0.47"},{"rate":0.640510412339807,"trial_type":"html-keyboard-response","trial_index":120,"time_elapsed":1295650,"internal_node_id":"0.0-19.47-1.47"},{"rt":null,"stimulus":"<div style=\"background-color:#ff7157\"><h1 style=\"background-color:Tomato\">Bad luck! There was no prize in the box!</h1><h1 style=\"background-color:Tomato\">Remember, you need to keep going until you have 20 prizes!</h1><img id=\"box\" src=\"img/sad/blueopenboxsadthumb.png\"></img></div>","key_press":null,"trial_type":"html-keyboard-response","trial_index":120,"time_elapsed":1297151,"internal_node_id":"0.0-19.47-1.47"},{"rt":1174.889999999199,"stimulus":"<p>Choose a box,</p>","button_pressed":1,"trial_type":"html-button-response","trial_index":121,"time_elapsed":1298328,"internal_node_id":"0.0-19.48-0.48"},{"rate":0.17435600254596015,"trial_type":"html-keyboard-response","trial_index":122,"time_elapsed":1298328,"internal_node_id":"0.0-19.48-1.48"},{"rt":null,"stimulus":"<div style=\"background-color:#ff7157\"><h1 style=\"background-color:Tomato\">Bad luck! There was no prize in the box!</h1><h1 style=\"background-color:Tomato\">Remember, you need to keep going until you have 20 prizes!</h1><img id=\"box\" src=\"img/sad/greenopenboxsadthumb.png\"></img></div>","key_press":null,"trial_type":"html-keyboard-response","trial_index":122,"time_elapsed":1299835,"internal_node_id":"0.0-19.48-1.48"},{"rt":562.5600000002887,"stimulus":"<p>Choose a box,</p>","button_pressed":3,"trial_type":"html-button-response","trial_index":123,"time_elapsed":1300400,"internal_node_id":"0.0-19.49-0.49"},{"rate":0.7925549731636017,"trial_type":"html-keyboard-response","trial_index":124,"time_elapsed":1300400,"internal_node_id":"0.0-19.49-1.49"},{"rt":null,"stimulus":"<div style=\"background-color:#6dce98\"><h1 style=\"background-color:MediumSeaGreen\" >You won a prize! Well done!</h1><div style=\"background-color:#6dce98\"><h1 style=\"background-color:MediumSeaGreen\" >Only 0 left to go!</h1><img id=\"box\" src=\"img/prizes/duck.png\"></img><img id=\"box\" src=\"img/empty/redopenbox.png\"></img></div>","key_press":null,"trial_type":"html-keyboard-response","trial_index":124,"time_elapsed":1301913,"internal_node_id":"0.0-19.49-1.49"},{"rt":45591.04500000016,"responses":"{\"Q0\":\"It was a bit like gambling\",\"Q1\":\"I slected it randomly at first, after which I focused on the first and last boxes.\"}","trial_type":"survey-text","trial_index":125,"time_elapsed":1347675,"internal_node_id":"0.0-20.0"}]