[{"view_history":"[{\"page_index\":0,\"viewing_time\":17395},{\"page_index\":1,\"viewing_time\":5565},{\"page_index\":2,\"viewing_time\":21473},{\"page_index\":3,\"viewing_time\":12510},{\"page_index\":4,\"viewing_time\":2761},{\"page_index\":5,\"viewing_time\":7672}]","rt":67377,"trial_type":"instructions","trial_index":0,"time_elapsed":67380,"internal_node_id":"0.0-0.0"},{"rt":8723,"responses":"{\"Q0\":\"Yes\",\"Q1\":\"Yes\",\"Q2\":\"Yes\"}","question_order":"[0,1,2]","trial_type":"survey-multi-choice","trial_index":1,"time_elapsed":76107,"internal_node_id":"0.0-1.0-0.0"},{"rt":24657,"responses":"{\"Q0\":\"Yes\",\"Q1\":\"Yes\",\"Q2\":\"Yes\"}","question_order":"[0,1,2]","trial_type":"survey-multi-choice","trial_index":2,"time_elapsed":100767,"internal_node_id":"0.0-2.0-0.0"},{"rt":5110,"responses":"{\"Q0\":\"5ec53fa42c5fff4c3e23d5d1\"}","trial_type":"survey-text","trial_index":3,"time_elapsed":105890,"internal_node_id":"0.0-3.0"},{"rt":4975,"responses":"{\"Q0\":\"Female\",\"Q1\":\"18-25\"}","question_order":"[0,1]","trial_type":"survey-multi-choice","trial_index":4,"time_elapsed":110866,"internal_node_id":"0.0-4.0"},{"rt":3005,"responses":"{\"Q0\":\"\"}","trial_type":"survey-text","trial_index":5,"time_elapsed":113878,"internal_node_id":"0.0-5.0"},{"view_history":"[{\"page_index\":0,\"viewing_time\":2785}]","rt":2785,"trial_type":"instructions","trial_index":6,"time_elapsed":116664,"internal_node_id":"0.0-6.0"},{"rt":20451,"responses":"{\"Interested\":3,\"Distressed\":1,\"Excited\":2,\"Upset\":4}","question_order":"[0,1,2,3]","trial_type":"survey-likert","trial_index":7,"time_elapsed":137116,"internal_node_id":"0.0-7.0"},{"rt":9269,"responses":"{\"Strong\":3,\"Guilty\":0,\"Scared\":1,\"Hostile\":0}","question_order":"[0,1,2,3]","trial_type":"survey-likert","trial_index":8,"time_elapsed":146387,"internal_node_id":"0.0-8.0"},{"rt":10334.99999999997,"responses":"{\"Enthusiastic\":3,\"Proud\":4,\"Irritable\":4,\"Alert\":1}","question_order":"[0,1,2,3]","trial_type":"survey-likert","trial_index":9,"time_elapsed":156724,"internal_node_id":"0.0-9.0"},{"rt":11762,"responses":"{\"Ashamed\":1,\"Inspired\":2,\"Nervous\":0,\"Determined\":3}","question_order":"[0,1,2,3]","trial_type":"survey-likert","trial_index":10,"time_elapsed":168488,"internal_node_id":"0.0-10.0"},{"rt":9829,"responses":"{\"Attentive\":3,\"Jittery\":2,\"Active\":4,\"Afraid\":1}","question_order":"[0,1,2,3]","trial_type":"survey-likert","trial_index":11,"time_elapsed":178319,"internal_node_id":"0.0-11.0"},{"rt":24387,"responses":"{\"Q0\":2,\"Q1\":0,\"Q2\":0,\"Q3\":0}","question_order":"[0,1,2,3]","trial_type":"survey-likert","trial_index":12,"time_elapsed":202708,"internal_node_id":"0.0-12.0"},{"rt":30138.00000000003,"responses":"{\"Q0\":0,\"Q1\":0,\"Q2\":0,\"Q3\":0}","question_order":"[0,1,2,3]","trial_type":"survey-likert","trial_index":13,"time_elapsed":232848,"internal_node_id":"0.0-13.0"},{"rt":24045,"responses":"{\"Q0\":0,\"Q1\":2,\"Q2\":1,\"Q3\":0}","question_order":"[0,1,2,3]","trial_type":"survey-likert","trial_index":14,"time_elapsed":256896,"internal_node_id":"0.0-14.0"},{"rt":53926.99999999997,"responses":"{\"Q0\":0,\"Q1\":2,\"Q2\":0}","question_order":"[0,1,2]","trial_type":"survey-likert","trial_index":15,"time_elapsed":310825,"internal_node_id":"0.0-15.0"},{"view_history":"[{\"page_index\":0,\"viewing_time\":2387},{\"page_index\":1,\"viewing_time\":6620.000000000058},{\"page_index\":2,\"viewing_time\":8072}]","rt":17079.00000000006,"trial_type":"instructions","trial_index":16,"time_elapsed":327907,"internal_node_id":"0.0-16.0"},{"rt":1064.0000000000582,"stimulus":"<p>Choose a box,</p>","button_pressed":2,"trial_type":"html-button-response","trial_index":17,"time_elapsed":328972,"internal_node_id":"0.0-17.0-0.0"},{"rate":0.1530764550325425,"trial_type":"html-keyboard-response","trial_index":18,"time_elapsed":328972,"internal_node_id":"0.0-17.0-1.0"},{"rt":null,"stimulus":"<div style=\"background-color:#ff7157\"><h1 style=\"background-color:Tomato\">Bad luck! There was no prize in the box!</h1><h1 style=\"background-color:Tomato\">Remember, you need to keep going until you have 20 prizes!</h1><img id=\"box\" src=\"img/sad/purpleopenboxsadthumb.png\"></img></div>","key_press":null,"trial_type":"html-keyboard-response","trial_index":18,"time_elapsed":330474,"internal_node_id":"0.0-17.0-1.0"},{"rt":1413.0000000000582,"stimulus":"<p>Choose a box,</p>","button_pressed":1,"trial_type":"html-button-response","trial_index":19,"time_elapsed":331888,"internal_node_id":"0.0-17.0-0.1"},{"rate":0.8245186080135901,"trial_type":"html-keyboard-response","trial_index":20,"time_elapsed":331888,"internal_node_id":"0.0-17.0-1.1"},{"rt":null,"stimulus":"<div style=\"background-color:#6dce98\"><h1 style=\"background-color:MediumSeaGreen\" >You won a prize! Well done!</h1><div style=\"background-color:#6dce98\"><h1 style=\"background-color:MediumSeaGreen\" >Only 19 left to go!</h1><img id=\"box\" src=\"img/prizes/duck.png\"></img><img id=\"box\" src=\"img/empty/greenopenbox.png\"></img></div>","key_press":null,"trial_type":"html-keyboard-response","trial_index":20,"time_elapsed":333389,"internal_node_id":"0.0-17.0-1.1"},{"rt":1189,"stimulus":"<p>Choose a box,</p>","button_pressed":3,"trial_type":"html-button-response","trial_index":21,"time_elapsed":334579,"internal_node_id":"0.0-17.0-0.2"},{"rate":0.26434223733204576,"trial_type":"html-keyboard-response","trial_index":22,"time_elapsed":334579,"internal_node_id":"0.0-17.0-1.2"},{"rt":null,"stimulus":"<div style=\"background-color:#ff7157\"><h1 style=\"background-color:Tomato\">Bad luck! There was no prize in the box!</h1><h1 style=\"background-color:Tomato\">Remember, you need to keep going until you have 20 prizes!</h1><img id=\"box\" src=\"img/sad/redopenboxsadthumb.png\"></img></div>","key_press":null,"trial_type":"html-keyboard-response","trial_index":22,"time_elapsed":336081,"internal_node_id":"0.0-17.0-1.2"},{"view_history":"[{\"page_index\":0,\"viewing_time\":5369}]","rt":5370,"trial_type":"instructions","trial_index":23,"time_elapsed":341452,"internal_node_id":"0.0-18.0"},{"rt":922,"stimulus":"<p>Choose a box,</p>","button_pressed":1,"trial_type":"html-button-response","trial_index":24,"time_elapsed":342375,"internal_node_id":"0.0-19.0-0.0"},{"rate":0.7391374896202567,"trial_type":"html-keyboard-response","trial_index":25,"time_elapsed":342375,"internal_node_id":"0.0-19.0-1.0"},{"rt":null,"stimulus":"<div style=\"background-color:#6dce98\"><h1 style=\"background-color:MediumSeaGreen\" >You won a prize! Well done!</h1><div style=\"background-color:#6dce98\"><h1 style=\"background-color:MediumSeaGreen\" >Only 19 left to go!</h1><img id=\"box\" src=\"img/prizes/flowers.png\"></img><img id=\"box\" src=\"img/empty/greenopenbox.png\"></img></div>","key_press":null,"trial_type":"html-keyboard-response","trial_index":25,"time_elapsed":343877,"internal_node_id":"0.0-19.0-1.0"},{"rt":633,"stimulus":"<p>Choose a box,</p>","button_pressed":1,"trial_type":"html-button-response","trial_index":26,"time_elapsed":344512,"internal_node_id":"0.0-19.1-0.1"},{"rate":0.7391374896202567,"trial_type":"html-keyboard-response","trial_index":27,"time_elapsed":344512,"internal_node_id":"0.0-19.1-1.1"},{"rt":null,"stimulus":"<div style=\"background-color:#6dce98\"><h1 style=\"background-color:MediumSeaGreen\" >You won a prize! Well done!</h1><div style=\"background-color:#6dce98\"><h1 style=\"background-color:MediumSeaGreen\" >Only 18 left to go!</h1><img id=\"box\" src=\"img/prizes/coins.png\"></img><img id=\"box\" src=\"img/empty/greenopenbox.png\"></img></div>","key_press":null,"trial_type":"html-keyboard-response","trial_index":27,"time_elapsed":346013,"internal_node_id":"0.0-19.1-1.1"},{"rt":533,"stimulus":"<p>Choose a box,</p>","button_pressed":1,"trial_type":"html-button-response","trial_index":28,"time_elapsed":346547,"internal_node_id":"0.0-19.2-0.2"},{"rate":0.7391374896202567,"trial_type":"html-keyboard-response","trial_index":29,"time_elapsed":346547,"internal_node_id":"0.0-19.2-1.2"},{"rt":null,"stimulus":"<div style=\"background-color:#6dce98\"><h1 style=\"background-color:MediumSeaGreen\" >You won a prize! Well done!</h1><div style=\"background-color:#6dce98\"><h1 style=\"background-color:MediumSeaGreen\" >Only 17 left to go!</h1><img id=\"box\" src=\"img/prizes/flowers.png\"></img><img id=\"box\" src=\"img/empty/greenopenbox.png\"></img></div>","key_press":null,"trial_type":"html-keyboard-response","trial_index":29,"time_elapsed":348049,"internal_node_id":"0.0-19.2-1.2"},{"rt":442,"stimulus":"<p>Choose a box,</p>","button_pressed":1,"trial_type":"html-button-response","trial_index":30,"time_elapsed":348492,"internal_node_id":"0.0-19.3-0.3"},{"rate":0.7391374896202567,"trial_type":"html-keyboard-response","trial_index":31,"time_elapsed":348492,"internal_node_id":"0.0-19.3-1.3"},{"rt":null,"stimulus":"<div style=\"background-color:#ff7157\"><h1 style=\"background-color:Tomato\">Bad luck! There was no prize in the box!</h1><h1 style=\"background-color:Tomato\">Remember, you need to keep going until you have 20 prizes!</h1><img id=\"box\" src=\"img/sad/greenopenboxsadthumb.png\"></img></div>","key_press":null,"trial_type":"html-keyboard-response","trial_index":31,"time_elapsed":349994,"internal_node_id":"0.0-19.3-1.3"},{"rt":500,"stimulus":"<p>Choose a box,</p>","button_pressed":2,"trial_type":"html-button-response","trial_index":32,"time_elapsed":350495,"internal_node_id":"0.0-19.4-0.4"},{"rate":0.41642577875381437,"trial_type":"html-keyboard-response","trial_index":33,"time_elapsed":350495,"internal_node_id":"0.0-19.4-1.4"},{"rt":null,"stimulus":"<div style=\"background-color:#ff7157\"><h1 style=\"background-color:Tomato\">Bad luck! There was no prize in the box!</h1><h1 style=\"background-color:Tomato\">Remember, you need to keep going until you have 20 prizes!</h1><img id=\"box\" src=\"img/sad/purpleopenboxsadthumb.png\"></img></div>","key_press":null,"trial_type":"html-keyboard-response","trial_index":33,"time_elapsed":351997,"internal_node_id":"0.0-19.4-1.4"},{"rt":373,"stimulus":"<p>Choose a box,</p>","button_pressed":2,"trial_type":"html-button-response","trial_index":34,"time_elapsed":352372,"internal_node_id":"0.0-19.5-0.5"},{"rate":0.41642577875381437,"trial_type":"html-keyboard-response","trial_index":35,"time_elapsed":352372,"internal_node_id":"0.0-19.5-1.5"},{"rt":null,"stimulus":"<div style=\"background-color:#6dce98\"><h1 style=\"background-color:MediumSeaGreen\" >You won a prize! Well done!</h1><div style=\"background-color:#6dce98\"><h1 style=\"background-color:MediumSeaGreen\" >Only 16 left to go!</h1><img id=\"box\" src=\"img/prizes/choc.png\"></img><img id=\"box\" src=\"img/empty/purpleopenbox.png\"></img></div>","key_press":null,"trial_type":"html-keyboard-response","trial_index":35,"time_elapsed":353874,"internal_node_id":"0.0-19.5-1.5"},{"rt":464,"stimulus":"<p>Choose a box,</p>","button_pressed":2,"trial_type":"html-button-response","trial_index":36,"time_elapsed":354340,"internal_node_id":"0.0-19.6-0.6"},{"rate":0.41642577875381437,"trial_type":"html-keyboard-response","trial_index":37,"time_elapsed":354340,"internal_node_id":"0.0-19.6-1.6"},{"rt":null,"stimulus":"<div style=\"background-color:#6dce98\"><h1 style=\"background-color:MediumSeaGreen\" >You won a prize! Well done!</h1><div style=\"background-color:#6dce98\"><h1 style=\"background-color:MediumSeaGreen\" >Only 15 left to go!</h1><img id=\"box\" src=\"img/prizes/flowers.png\"></img><img id=\"box\" src=\"img/empty/purpleopenbox.png\"></img></div>","key_press":null,"trial_type":"html-keyboard-response","trial_index":37,"time_elapsed":355841,"internal_node_id":"0.0-19.6-1.6"},{"rt":350,"stimulus":"<p>Choose a box,</p>","button_pressed":2,"trial_type":"html-button-response","trial_index":38,"time_elapsed":356192,"internal_node_id":"0.0-19.7-0.7"},{"rate":0.41642577875381437,"trial_type":"html-keyboard-response","trial_index":39,"time_elapsed":356192,"internal_node_id":"0.0-19.7-1.7"},{"rt":null,"stimulus":"<div style=\"background-color:#6dce98\"><h1 style=\"background-color:MediumSeaGreen\" >You won a prize! Well done!</h1><div style=\"background-color:#6dce98\"><h1 style=\"background-color:MediumSeaGreen\" >Only 14 left to go!</h1><img id=\"box\" src=\"img/prizes/beachball.png\"></img><img id=\"box\" src=\"img/empty/purpleopenbox.png\"></img></div>","key_press":null,"trial_type":"html-keyboard-response","trial_index":39,"time_elapsed":357694,"internal_node_id":"0.0-19.7-1.7"},{"rt":388,"stimulus":"<p>Choose a box,</p>","button_pressed":2,"trial_type":"html-button-response","trial_index":40,"time_elapsed":358084,"internal_node_id":"0.0-19.8-0.8"},{"rate":0.41642577875381437,"trial_type":"html-keyboard-response","trial_index":41,"time_elapsed":358084,"internal_node_id":"0.0-19.8-1.8"},{"rt":null,"stimulus":"<div style=\"background-color:#ff7157\"><h1 style=\"background-color:Tomato\">Bad luck! There was no prize in the box!</h1><h1 style=\"background-color:Tomato\">Remember, you need to keep going until you have 20 prizes!</h1><img id=\"box\" src=\"img/sad/purpleopenboxsadthumb.png\"></img></div>","key_press":null,"trial_type":"html-keyboard-response","trial_index":41,"time_elapsed":359585,"internal_node_id":"0.0-19.8-1.8"},{"rt":393,"stimulus":"<p>Choose a box,</p>","button_pressed":1,"trial_type":"html-button-response","trial_index":42,"time_elapsed":359980,"internal_node_id":"0.0-19.9-0.9"},{"rate":0.7391374896202567,"trial_type":"html-keyboard-response","trial_index":43,"time_elapsed":359980,"internal_node_id":"0.0-19.9-1.9"},{"rt":null,"stimulus":"<div style=\"background-color:#ff7157\"><h1 style=\"background-color:Tomato\">Bad luck! There was no prize in the box!</h1><h1 style=\"background-color:Tomato\">Remember, you need to keep going until you have 20 prizes!</h1><img id=\"box\" src=\"img/sad/greenopenboxsadthumb.png\"></img></div>","key_press":null,"trial_type":"html-keyboard-response","trial_index":43,"time_elapsed":361481,"internal_node_id":"0.0-19.9-1.9"},{"rt":445,"stimulus":"<p>Choose a box,</p>","button_pressed":0,"trial_type":"html-button-response","trial_index":44,"time_elapsed":361927,"internal_node_id":"0.0-19.10-0.10"},{"rate":0.1124822191229226,"trial_type":"html-keyboard-response","trial_index":45,"time_elapsed":361928,"internal_node_id":"0.0-19.10-1.10"},{"rt":null,"stimulus":"<div style=\"background-color:#ff7157\"><h1 style=\"background-color:Tomato\">Bad luck! There was no prize in the box!</h1><h1 style=\"background-color:Tomato\">Remember, you need to keep going until you have 20 prizes!</h1><img id=\"box\" src=\"img/sad/blueopenboxsadthumb.png\"></img></div>","key_press":null,"trial_type":"html-keyboard-response","trial_index":45,"time_elapsed":363429,"internal_node_id":"0.0-19.10-1.10"},{"rt":421,"stimulus":"<p>Choose a box,</p>","button_pressed":3,"trial_type":"html-button-response","trial_index":46,"time_elapsed":363851,"internal_node_id":"0.0-19.11-0.11"},{"rate":0.22056948024738887,"trial_type":"html-keyboard-response","trial_index":47,"time_elapsed":363852,"internal_node_id":"0.0-19.11-1.11"},{"rt":null,"stimulus":"<div style=\"background-color:#ff7157\"><h1 style=\"background-color:Tomato\">Bad luck! There was no prize in the box!</h1><h1 style=\"background-color:Tomato\">Remember, you need to keep going until you have 20 prizes!</h1><img id=\"box\" src=\"img/sad/redopenboxsadthumb.png\"></img></div>","key_press":null,"trial_type":"html-keyboard-response","trial_index":47,"time_elapsed":365353,"internal_node_id":"0.0-19.11-1.11"},{"rt":347,"stimulus":"<p>Choose a box,</p>","button_pressed":2,"trial_type":"html-button-response","trial_index":48,"time_elapsed":365700,"internal_node_id":"0.0-19.12-0.12"},{"rate":0.41642577875381437,"trial_type":"html-keyboard-response","trial_index":49,"time_elapsed":365700,"internal_node_id":"0.0-19.12-1.12"},{"rt":null,"stimulus":"<div style=\"background-color:#6dce98\"><h1 style=\"background-color:MediumSeaGreen\" >You won a prize! Well done!</h1><div style=\"background-color:#6dce98\"><h1 style=\"background-color:MediumSeaGreen\" >Only 13 left to go!</h1><img id=\"box\" src=\"img/prizes/coins.png\"></img><img id=\"box\" src=\"img/empty/purpleopenbox.png\"></img></div>","key_press":null,"trial_type":"html-keyboard-response","trial_index":49,"time_elapsed":367202,"internal_node_id":"0.0-19.12-1.12"},{"rt":374,"stimulus":"<p>Choose a box,</p>","button_pressed":2,"trial_type":"html-button-response","trial_index":50,"time_elapsed":367576,"internal_node_id":"0.0-19.13-0.13"},{"rate":0.41642577875381437,"trial_type":"html-keyboard-response","trial_index":51,"time_elapsed":367576,"internal_node_id":"0.0-19.13-1.13"},{"rt":null,"stimulus":"<div style=\"background-color:#ff7157\"><h1 style=\"background-color:Tomato\">Bad luck! There was no prize in the box!</h1><h1 style=\"background-color:Tomato\">Remember, you need to keep going until you have 20 prizes!</h1><img id=\"box\" src=\"img/sad/purpleopenboxsadthumb.png\"></img></div>","key_press":null,"trial_type":"html-keyboard-response","trial_index":51,"time_elapsed":369078,"internal_node_id":"0.0-19.13-1.13"},{"rt":508,"stimulus":"<p>Choose a box,</p>","button_pressed":1,"trial_type":"html-button-response","trial_index":52,"time_elapsed":369588,"internal_node_id":"0.0-19.14-0.14"},{"rate":0.7391374896202567,"trial_type":"html-keyboard-response","trial_index":53,"time_elapsed":369588,"internal_node_id":"0.0-19.14-1.14"},{"rt":null,"stimulus":"<div style=\"background-color:#6dce98\"><h1 style=\"background-color:MediumSeaGreen\" >You won a prize! Well done!</h1><div style=\"background-color:#6dce98\"><h1 style=\"background-color:MediumSeaGreen\" >Only 12 left to go!</h1><img id=\"box\" src=\"img/prizes/ring.png\"></img><img id=\"box\" src=\"img/empty/greenopenbox.png\"></img></div>","key_press":null,"trial_type":"html-keyboard-response","trial_index":53,"time_elapsed":371090,"internal_node_id":"0.0-19.14-1.14"},{"rt":112,"stimulus":"<p>Choose a box,</p>","button_pressed":1,"trial_type":"html-button-response","trial_index":54,"time_elapsed":371204,"internal_node_id":"0.0-19.15-0.15"},{"rate":0.7391374896202567,"trial_type":"html-keyboard-response","trial_index":55,"time_elapsed":371204,"internal_node_id":"0.0-19.15-1.15"},{"rt":null,"stimulus":"<div style=\"background-color:#6dce98\"><h1 style=\"background-color:MediumSeaGreen\" >You won a prize! Well done!</h1><div style=\"background-color:#6dce98\"><h1 style=\"background-color:MediumSeaGreen\" >Only 11 left to go!</h1><img id=\"box\" src=\"img/prizes/choc.png\"></img><img id=\"box\" src=\"img/empty/greenopenbox.png\"></img></div>","key_press":null,"trial_type":"html-keyboard-response","trial_index":55,"time_elapsed":372706,"internal_node_id":"0.0-19.15-1.15"},{"rt":564,"stimulus":"<p>Choose a box,</p>","button_pressed":1,"trial_type":"html-button-response","trial_index":56,"time_elapsed":373272,"internal_node_id":"0.0-19.16-0.16"},{"rate":0.7391374896202567,"trial_type":"html-keyboard-response","trial_index":57,"time_elapsed":373272,"internal_node_id":"0.0-19.16-1.16"},{"rt":null,"stimulus":"<div style=\"background-color:#6dce98\"><h1 style=\"background-color:MediumSeaGreen\" >You won a prize! Well done!</h1><div style=\"background-color:#6dce98\"><h1 style=\"background-color:MediumSeaGreen\" >Only 10 left to go!</h1><img id=\"box\" src=\"img/prizes/bear.png\"></img><img id=\"box\" src=\"img/empty/greenopenbox.png\"></img></div>","key_press":null,"trial_type":"html-keyboard-response","trial_index":57,"time_elapsed":374773,"internal_node_id":"0.0-19.16-1.16"},{"rt":374,"stimulus":"<p>Choose a box,</p>","button_pressed":2,"trial_type":"html-button-response","trial_index":58,"time_elapsed":375148,"internal_node_id":"0.0-19.17-0.17"},{"rate":0.41642577875381437,"trial_type":"html-keyboard-response","trial_index":59,"time_elapsed":375148,"internal_node_id":"0.0-19.17-1.17"},{"rt":null,"stimulus":"<div style=\"background-color:#ff7157\"><h1 style=\"background-color:Tomato\">Bad luck! There was no prize in the box!</h1><h1 style=\"background-color:Tomato\">Remember, you need to keep going until you have 20 prizes!</h1><img id=\"box\" src=\"img/sad/purpleopenboxsadthumb.png\"></img></div>","key_press":null,"trial_type":"html-keyboard-response","trial_index":59,"time_elapsed":376650,"internal_node_id":"0.0-19.17-1.17"},{"rt":221,"stimulus":"<p>Choose a box,</p>","button_pressed":2,"trial_type":"html-button-response","trial_index":60,"time_elapsed":376872,"internal_node_id":"0.0-19.18-0.18"},{"rate":0.41642577875381437,"trial_type":"html-keyboard-response","trial_index":61,"time_elapsed":376872,"internal_node_id":"0.0-19.18-1.18"},{"rt":null,"stimulus":"<div style=\"background-color:#ff7157\"><h1 style=\"background-color:Tomato\">Bad luck! There was no prize in the box!</h1><h1 style=\"background-color:Tomato\">Remember, you need to keep going until you have 20 prizes!</h1><img id=\"box\" src=\"img/sad/purpleopenboxsadthumb.png\"></img></div>","key_press":null,"trial_type":"html-keyboard-response","trial_index":61,"time_elapsed":378374,"internal_node_id":"0.0-19.18-1.18"},{"rt":449.0000000000582,"stimulus":"<p>Choose a box,</p>","button_pressed":1,"trial_type":"html-button-response","trial_index":62,"time_elapsed":378824,"internal_node_id":"0.0-19.19-0.19"},{"rate":0.7391374896202567,"trial_type":"html-keyboard-response","trial_index":63,"time_elapsed":378824,"internal_node_id":"0.0-19.19-1.19"},{"rt":null,"stimulus":"<div style=\"background-color:#6dce98\"><h1 style=\"background-color:MediumSeaGreen\" >You won a prize! Well done!</h1><div style=\"background-color:#6dce98\"><h1 style=\"background-color:MediumSeaGreen\" >Only 9 left to go!</h1><img id=\"box\" src=\"img/prizes/duck.png\"></img><img id=\"box\" src=\"img/empty/greenopenbox.png\"></img></div>","key_press":null,"trial_type":"html-keyboard-response","trial_index":63,"time_elapsed":380325,"internal_node_id":"0.0-19.19-1.19"},{"rt":365,"stimulus":"<p>Choose a box,</p>","button_pressed":1,"trial_type":"html-button-response","trial_index":64,"time_elapsed":380692,"internal_node_id":"0.0-19.20-0.20"},{"rate":0.7391374896202567,"trial_type":"html-keyboard-response","trial_index":65,"time_elapsed":380692,"internal_node_id":"0.0-19.20-1.20"},{"rt":null,"stimulus":"<div style=\"background-color:#ff7157\"><h1 style=\"background-color:Tomato\">Bad luck! There was no prize in the box!</h1><h1 style=\"background-color:Tomato\">Remember, you need to keep going until you have 20 prizes!</h1><img id=\"box\" src=\"img/sad/greenopenboxsadthumb.png\"></img></div>","key_press":null,"trial_type":"html-keyboard-response","trial_index":65,"time_elapsed":382193,"internal_node_id":"0.0-19.20-1.20"},{"rt":381,"stimulus":"<p>Choose a box,</p>","button_pressed":2,"trial_type":"html-button-response","trial_index":66,"time_elapsed":382576,"internal_node_id":"0.0-19.21-0.21"},{"rate":0.41642577875381437,"trial_type":"html-keyboard-response","trial_index":67,"time_elapsed":382576,"internal_node_id":"0.0-19.21-1.21"},{"rt":null,"stimulus":"<div style=\"background-color:#6dce98\"><h1 style=\"background-color:MediumSeaGreen\" >You won a prize! Well done!</h1><div style=\"background-color:#6dce98\"><h1 style=\"background-color:MediumSeaGreen\" >Only 8 left to go!</h1><img id=\"box\" src=\"img/prizes/beachball.png\"></img><img id=\"box\" src=\"img/empty/purpleopenbox.png\"></img></div>","key_press":null,"trial_type":"html-keyboard-response","trial_index":67,"time_elapsed":384078,"internal_node_id":"0.0-19.21-1.21"},{"rt":393,"stimulus":"<p>Choose a box,</p>","button_pressed":2,"trial_type":"html-button-response","trial_index":68,"time_elapsed":384472,"internal_node_id":"0.0-19.22-0.22"},{"rate":0.41642577875381437,"trial_type":"html-keyboard-response","trial_index":69,"time_elapsed":384472,"internal_node_id":"0.0-19.22-1.22"},{"rt":null,"stimulus":"<div style=\"background-color:#6dce98\"><h1 style=\"background-color:MediumSeaGreen\" >You won a prize! Well done!</h1><div style=\"background-color:#6dce98\"><h1 style=\"background-color:MediumSeaGreen\" >Only 7 left to go!</h1><img id=\"box\" src=\"img/prizes/yoyo.png\"></img><img id=\"box\" src=\"img/empty/purpleopenbox.png\"></img></div>","key_press":null,"trial_type":"html-keyboard-response","trial_index":69,"time_elapsed":385974,"internal_node_id":"0.0-19.22-1.22"},{"rt":374,"stimulus":"<p>Choose a box,</p>","button_pressed":2,"trial_type":"html-button-response","trial_index":70,"time_elapsed":386348,"internal_node_id":"0.0-19.23-0.23"},{"rate":0.41642577875381437,"trial_type":"html-keyboard-response","trial_index":71,"time_elapsed":386349,"internal_node_id":"0.0-19.23-1.23"},{"rt":null,"stimulus":"<div style=\"background-color:#6dce98\"><h1 style=\"background-color:MediumSeaGreen\" >You won a prize! Well done!</h1><div style=\"background-color:#6dce98\"><h1 style=\"background-color:MediumSeaGreen\" >Only 6 left to go!</h1><img id=\"box\" src=\"img/prizes/duck.png\"></img><img id=\"box\" src=\"img/empty/purpleopenbox.png\"></img></div>","key_press":null,"trial_type":"html-keyboard-response","trial_index":71,"time_elapsed":387851,"internal_node_id":"0.0-19.23-1.23"},{"rt":536,"stimulus":"<p>Choose a box,</p>","button_pressed":2,"trial_type":"html-button-response","trial_index":72,"time_elapsed":388388,"internal_node_id":"0.0-19.24-0.24"},{"rate":0.41642577875381437,"trial_type":"html-keyboard-response","trial_index":73,"time_elapsed":388388,"internal_node_id":"0.0-19.24-1.24"},{"rt":null,"stimulus":"<div style=\"background-color:#ff7157\"><h1 style=\"background-color:Tomato\">Bad luck! There was no prize in the box!</h1><h1 style=\"background-color:Tomato\">Remember, you need to keep going until you have 20 prizes!</h1><img id=\"box\" src=\"img/sad/purpleopenboxsadthumb.png\"></img></div>","key_press":null,"trial_type":"html-keyboard-response","trial_index":73,"time_elapsed":389890,"internal_node_id":"0.0-19.24-1.24"},{"rt":401,"stimulus":"<p>Choose a box,</p>","button_pressed":1,"trial_type":"html-button-response","trial_index":74,"time_elapsed":390292,"internal_node_id":"0.0-19.25-0.25"},{"rate":0.7391374896202567,"trial_type":"html-keyboard-response","trial_index":75,"time_elapsed":390292,"internal_node_id":"0.0-19.25-1.25"},{"rt":null,"stimulus":"<div style=\"background-color:#6dce98\"><h1 style=\"background-color:MediumSeaGreen\" >You won a prize! Well done!</h1><div style=\"background-color:#6dce98\"><h1 style=\"background-color:MediumSeaGreen\" >Only 5 left to go!</h1><img id=\"box\" src=\"img/prizes/ring.png\"></img><img id=\"box\" src=\"img/empty/greenopenbox.png\"></img></div>","key_press":null,"trial_type":"html-keyboard-response","trial_index":75,"time_elapsed":391794,"internal_node_id":"0.0-19.25-1.25"},{"rt":380.9999999999418,"stimulus":"<p>Choose a box,</p>","button_pressed":1,"trial_type":"html-button-response","trial_index":76,"time_elapsed":392176,"internal_node_id":"0.0-19.26-0.26"},{"rate":0.7391374896202567,"trial_type":"html-keyboard-response","trial_index":77,"time_elapsed":392176,"internal_node_id":"0.0-19.26-1.26"},{"rt":null,"stimulus":"<div style=\"background-color:#ff7157\"><h1 style=\"background-color:Tomato\">Bad luck! There was no prize in the box!</h1><h1 style=\"background-color:Tomato\">Remember, you need to keep going until you have 20 prizes!</h1><img id=\"box\" src=\"img/sad/greenopenboxsadthumb.png\"></img></div>","key_press":null,"trial_type":"html-keyboard-response","trial_index":77,"time_elapsed":393678,"internal_node_id":"0.0-19.26-1.26"},{"rt":145.0000000000582,"stimulus":"<p>Choose a box,</p>","button_pressed":2,"trial_type":"html-button-response","trial_index":78,"time_elapsed":393824,"internal_node_id":"0.0-19.27-0.27"},{"rate":0.41642577875381437,"trial_type":"html-keyboard-response","trial_index":79,"time_elapsed":393824,"internal_node_id":"0.0-19.27-1.27"},{"rt":null,"stimulus":"<div style=\"background-color:#6dce98\"><h1 style=\"background-color:MediumSeaGreen\" >You won a prize! Well done!</h1><div style=\"background-color:#6dce98\"><h1 style=\"background-color:MediumSeaGreen\" >Only 4 left to go!</h1><img id=\"box\" src=\"img/prizes/flowers.png\"></img><img id=\"box\" src=\"img/empty/purpleopenbox.png\"></img></div>","key_press":null,"trial_type":"html-keyboard-response","trial_index":79,"time_elapsed":395325,"internal_node_id":"0.0-19.27-1.27"},{"rt":349,"stimulus":"<p>Choose a box,</p>","button_pressed":2,"trial_type":"html-button-response","trial_index":80,"time_elapsed":395676,"internal_node_id":"0.0-19.28-0.28"},{"rate":0.41642577875381437,"trial_type":"html-keyboard-response","trial_index":81,"time_elapsed":395676,"internal_node_id":"0.0-19.28-1.28"},{"rt":null,"stimulus":"<div style=\"background-color:#ff7157\"><h1 style=\"background-color:Tomato\">Bad luck! There was no prize in the box!</h1><h1 style=\"background-color:Tomato\">Remember, you need to keep going until you have 20 prizes!</h1><img id=\"box\" src=\"img/sad/purpleopenboxsadthumb.png\"></img></div>","key_press":null,"trial_type":"html-keyboard-response","trial_index":81,"time_elapsed":397178,"internal_node_id":"0.0-19.28-1.28"},{"rt":620.0000000000582,"stimulus":"<p>Choose a box,</p>","button_pressed":2,"trial_type":"html-button-response","trial_index":82,"time_elapsed":397800,"internal_node_id":"0.0-19.29-0.29"},{"rate":0.41642577875381437,"trial_type":"html-keyboard-response","trial_index":83,"time_elapsed":397800,"internal_node_id":"0.0-19.29-1.29"},{"rt":null,"stimulus":"<div style=\"background-color:#ff7157\"><h1 style=\"background-color:Tomato\">Bad luck! There was no prize in the box!</h1><h1 style=\"background-color:Tomato\">Remember, you need to keep going until you have 20 prizes!</h1><img id=\"box\" src=\"img/sad/purpleopenboxsadthumb.png\"></img></div>","key_press":null,"trial_type":"html-keyboard-response","trial_index":83,"time_elapsed":399302,"internal_node_id":"0.0-19.29-1.29"},{"rt":430,"stimulus":"<p>Choose a box,</p>","button_pressed":1,"trial_type":"html-button-response","trial_index":84,"time_elapsed":399733,"internal_node_id":"0.0-19.30-0.30"},{"rate":0.7391374896202567,"trial_type":"html-keyboard-response","trial_index":85,"time_elapsed":399733,"internal_node_id":"0.0-19.30-1.30"},{"rt":null,"stimulus":"<div style=\"background-color:#6dce98\"><h1 style=\"background-color:MediumSeaGreen\" >You won a prize! Well done!</h1><div style=\"background-color:#6dce98\"><h1 style=\"background-color:MediumSeaGreen\" >Only 3 left to go!</h1><img id=\"box\" src=\"img/prizes/duck.png\"></img><img id=\"box\" src=\"img/empty/greenopenbox.png\"></img></div>","key_press":null,"trial_type":"html-keyboard-response","trial_index":85,"time_elapsed":401235,"internal_node_id":"0.0-19.30-1.30"},{"rt":724,"stimulus":"<p>Choose a box,</p>","button_pressed":1,"trial_type":"html-button-response","trial_index":86,"time_elapsed":401960,"internal_node_id":"0.0-19.31-0.31"},{"rate":0.7391374896202567,"trial_type":"html-keyboard-response","trial_index":87,"time_elapsed":401960,"internal_node_id":"0.0-19.31-1.31"},{"rt":null,"stimulus":"<div style=\"background-color:#6dce98\"><h1 style=\"background-color:MediumSeaGreen\" >You won a prize! Well done!</h1><div style=\"background-color:#6dce98\"><h1 style=\"background-color:MediumSeaGreen\" >Only 2 left to go!</h1><img id=\"box\" src=\"img/prizes/choc.png\"></img><img id=\"box\" src=\"img/empty/greenopenbox.png\"></img></div>","key_press":null,"trial_type":"html-keyboard-response","trial_index":87,"time_elapsed":403462,"internal_node_id":"0.0-19.31-1.31"},{"rt":397.0000000000582,"stimulus":"<p>Choose a box,</p>","button_pressed":2,"trial_type":"html-button-response","trial_index":88,"time_elapsed":403860,"internal_node_id":"0.0-19.32-0.32"},{"rate":0.41642577875381437,"trial_type":"html-keyboard-response","trial_index":89,"time_elapsed":403861,"internal_node_id":"0.0-19.32-1.32"},{"rt":null,"stimulus":"<div style=\"background-color:#6dce98\"><h1 style=\"background-color:MediumSeaGreen\" >You won a prize! Well done!</h1><div style=\"background-color:#6dce98\"><h1 style=\"background-color:MediumSeaGreen\" >Only 1 left to go!</h1><img id=\"box\" src=\"img/prizes/beachball.png\"></img><img id=\"box\" src=\"img/empty/purpleopenbox.png\"></img></div>","key_press":null,"trial_type":"html-keyboard-response","trial_index":89,"time_elapsed":405362,"internal_node_id":"0.0-19.32-1.32"},{"rt":409,"stimulus":"<p>Choose a box,</p>","button_pressed":2,"trial_type":"html-button-response","trial_index":90,"time_elapsed":405772,"internal_node_id":"0.0-19.33-0.33"},{"rate":0.41642577875381437,"trial_type":"html-keyboard-response","trial_index":91,"time_elapsed":405772,"internal_node_id":"0.0-19.33-1.33"},{"rt":null,"stimulus":"<div style=\"background-color:#ff7157\"><h1 style=\"background-color:Tomato\">Bad luck! There was no prize in the box!</h1><h1 style=\"background-color:Tomato\">Remember, you need to keep going until you have 20 prizes!</h1><img id=\"box\" src=\"img/sad/purpleopenboxsadthumb.png\"></img></div>","key_press":null,"trial_type":"html-keyboard-response","trial_index":91,"time_elapsed":407274,"internal_node_id":"0.0-19.33-1.33"},{"rt":357,"stimulus":"<p>Choose a box,</p>","button_pressed":1,"trial_type":"html-button-response","trial_index":92,"time_elapsed":407632,"internal_node_id":"0.0-19.34-0.34"},{"rate":0.7391374896202567,"trial_type":"html-keyboard-response","trial_index":93,"time_elapsed":407633,"internal_node_id":"0.0-19.34-1.34"},{"rt":null,"stimulus":"<div style=\"background-color:#6dce98\"><h1 style=\"background-color:MediumSeaGreen\" >You won a prize! Well done!</h1><div style=\"background-color:#6dce98\"><h1 style=\"background-color:MediumSeaGreen\" >Only 0 left to go!</h1><img id=\"box\" src=\"img/prizes/flowers.png\"></img><img id=\"box\" src=\"img/empty/greenopenbox.png\"></img></div>","key_press":null,"trial_type":"html-keyboard-response","trial_index":93,"time_elapsed":409134,"internal_node_id":"0.0-19.34-1.34"},{"rt":17296,"responses":"{\"Q0\":\"it was different\",\"Q1\":\"i followed a pattern \"}","trial_type":"survey-text","trial_index":94,"time_elapsed":426432,"internal_node_id":"0.0-20.0"}]