[{"view_history":"[{\"page_index\":0,\"viewing_time\":1497.5000000013097},{\"page_index\":1,\"viewing_time\":1613.564999999653},{\"page_index\":2,\"viewing_time\":1854.3949999984761},{\"page_index\":3,\"viewing_time\":813.3200000011129},{\"page_index\":4,\"viewing_time\":971.7749999981606},{\"page_index\":5,\"viewing_time\":1236.0650000009628}]","rt":7987.570000001142,"trial_type":"instructions","trial_index":0,"time_elapsed":7992,"internal_node_id":"0.0-0.0"},{"rt":4392.9449999995995,"responses":"{\"Q0\":\"Yes\",\"Q1\":\"Yes\",\"Q2\":\"Yes\"}","question_order":"[0,1,2]","trial_type":"survey-multi-choice","trial_index":1,"time_elapsed":12388,"internal_node_id":"0.0-1.0-0.0"},{"rt":4149.4650000022375,"responses":"{\"Q0\":\"Yes\",\"Q1\":\"Yes\",\"Q2\":\"Yes\"}","question_order":"[0,1,2]","trial_type":"survey-multi-choice","trial_index":2,"time_elapsed":16540,"internal_node_id":"0.0-2.0-0.0"},{"rt":3602.9799999996612,"responses":"{\"Q0\":\"5e67d165cbb37e037909c20f\"}","trial_type":"survey-text","trial_index":3,"time_elapsed":20146,"internal_node_id":"0.0-3.0"},{"rt":3938.160000001517,"responses":"{\"Q0\":\"Male\",\"Q1\":\"25-34\"}","question_order":"[0,1]","trial_type":"survey-multi-choice","trial_index":4,"time_elapsed":24086,"internal_node_id":"0.0-4.0"},{"rt":1908.1649999970978,"responses":"{\"Q0\":\"\"}","trial_type":"survey-text","trial_index":5,"time_elapsed":25997,"internal_node_id":"0.0-5.0"},{"view_history":"[{\"page_index\":0,\"viewing_time\":738.775000001624}]","rt":739.0550000018266,"trial_type":"instructions","trial_index":6,"time_elapsed":26737,"internal_node_id":"0.0-6.0"},{"rt":11405.535000001692,"responses":"{\"Interested\":3,\"Distressed\":0,\"Excited\":0,\"Upset\":0}","question_order":"[0,1,2,3]","trial_type":"survey-likert","trial_index":7,"time_elapsed":38145,"internal_node_id":"0.0-7.0"},{"rt":9178.560000000289,"responses":"{\"Strong\":3,\"Guilty\":0,\"Scared\":0,\"Hostile\":0}","question_order":"[0,1,2,3]","trial_type":"survey-likert","trial_index":8,"time_elapsed":47326,"internal_node_id":"0.0-8.0"},{"rt":8739.525000000867,"responses":"{\"Enthusiastic\":1,\"Proud\":0,\"Irritable\":1,\"Alert\":1}","question_order":"[0,1,2,3]","trial_type":"survey-likert","trial_index":9,"time_elapsed":56068,"internal_node_id":"0.0-9.0"},{"rt":5674.610000001849,"responses":"{\"Ashamed\":0,\"Inspired\":0,\"Nervous\":0,\"Determined\":0}","question_order":"[0,1,2,3]","trial_type":"survey-likert","trial_index":10,"time_elapsed":61745,"internal_node_id":"0.0-10.0"},{"rt":8977.034999999887,"responses":"{\"Attentive\":1,\"Jittery\":0,\"Active\":2,\"Afraid\":0}","question_order":"[0,1,2,3]","trial_type":"survey-likert","trial_index":11,"time_elapsed":70724,"internal_node_id":"0.0-11.0"},{"rt":11179.650000001857,"responses":"{\"Q0\":1,\"Q1\":0,\"Q2\":0,\"Q3\":0}","question_order":"[0,1,2,3]","trial_type":"survey-likert","trial_index":12,"time_elapsed":81906,"internal_node_id":"0.0-12.0"},{"rt":21154.324999999517,"responses":"{\"Q0\":0,\"Q1\":0,\"Q2\":0,\"Q3\":0}","question_order":"[0,1,2,3]","trial_type":"survey-likert","trial_index":13,"time_elapsed":103063,"internal_node_id":"0.0-13.0"},{"rt":6771.759999999631,"responses":"{\"Q0\":0,\"Q1\":0,\"Q2\":0,\"Q3\":0}","question_order":"[0,1,2,3]","trial_type":"survey-likert","trial_index":14,"time_elapsed":109837,"internal_node_id":"0.0-14.0"},{"rt":4889.234999998735,"responses":"{\"Q0\":0,\"Q1\":0,\"Q2\":0}","question_order":"[0,1,2]","trial_type":"survey-likert","trial_index":15,"time_elapsed":114728,"internal_node_id":"0.0-15.0"},{"view_history":"[{\"page_index\":0,\"viewing_time\":1132.4450000029174},{\"page_index\":1,\"viewing_time\":1809.5499999981257},{\"page_index\":2,\"viewing_time\":1781.0449999997218}]","rt":4723.470000000816,"trial_type":"instructions","trial_index":16,"time_elapsed":119457,"internal_node_id":"0.0-16.0"},{"rt":1486.7099999974016,"stimulus":"<p>Choose a box,</p>","button_pressed":1,"trial_type":"html-button-response","trial_index":17,"time_elapsed":120946,"internal_node_id":"0.0-17.0-0.0"},{"rate":0.4460657966188237,"trial_type":"html-keyboard-response","trial_index":18,"time_elapsed":120947,"internal_node_id":"0.0-17.0-1.0"},{"rt":null,"stimulus":"<div style=\"background-color:#6dce98\"><h1 style=\"background-color:MediumSeaGreen\" >You won a prize! Well done!</h1><div style=\"background-color:#6dce98\"><h1 style=\"background-color:MediumSeaGreen\" >Only 19 left to go!</h1><img id=\"box\" src=\"img/prizes/duck.png\"></img><img id=\"box\" src=\"img/empty/greenopenbox.png\"></img></div>","key_press":null,"trial_type":"html-keyboard-response","trial_index":18,"time_elapsed":122453,"internal_node_id":"0.0-17.0-1.0"},{"rt":1226.8949999997858,"stimulus":"<p>Choose a box,</p>","button_pressed":1,"trial_type":"html-button-response","trial_index":19,"time_elapsed":123682,"internal_node_id":"0.0-17.0-0.1"},{"rate":0.4460657966188237,"trial_type":"html-keyboard-response","trial_index":20,"time_elapsed":123682,"internal_node_id":"0.0-17.0-1.1"},{"rt":null,"stimulus":"<div style=\"background-color:#6dce98\"><h1 style=\"background-color:MediumSeaGreen\" >You won a prize! Well done!</h1><div style=\"background-color:#6dce98\"><h1 style=\"background-color:MediumSeaGreen\" >Only 18 left to go!</h1><img id=\"box\" src=\"img/prizes/lolipop.png\"></img><img id=\"box\" src=\"img/empty/greenopenbox.png\"></img></div>","key_press":null,"trial_type":"html-keyboard-response","trial_index":20,"time_elapsed":125185,"internal_node_id":"0.0-17.0-1.1"},{"rt":556.0750000004191,"stimulus":"<p>Choose a box,</p>","button_pressed":1,"trial_type":"html-button-response","trial_index":21,"time_elapsed":125743,"internal_node_id":"0.0-17.0-0.2"},{"rate":0.4460657966188237,"trial_type":"html-keyboard-response","trial_index":22,"time_elapsed":125743,"internal_node_id":"0.0-17.0-1.2"},{"rt":null,"stimulus":"<div style=\"background-color:#6dce98\"><h1 style=\"background-color:MediumSeaGreen\" >You won a prize! Well done!</h1><div style=\"background-color:#6dce98\"><h1 style=\"background-color:MediumSeaGreen\" >Only 17 left to go!</h1><img id=\"box\" src=\"img/prizes/yoyo.png\"></img><img id=\"box\" src=\"img/empty/greenopenbox.png\"></img></div>","key_press":null,"trial_type":"html-keyboard-response","trial_index":22,"time_elapsed":127245,"internal_node_id":"0.0-17.0-1.2"},{"view_history":"[{\"page_index\":0,\"viewing_time\":2415.3499999993073}]","rt":2415.754999998171,"trial_type":"instructions","trial_index":23,"time_elapsed":129666,"internal_node_id":"0.0-18.0"},{"rt":1681.414999999106,"stimulus":"<p>Choose a box,</p>","button_pressed":1,"trial_type":"html-button-response","trial_index":24,"time_elapsed":131350,"internal_node_id":"0.0-19.0-0.0"},{"rate":0.07381589580235538,"trial_type":"html-keyboard-response","trial_index":25,"time_elapsed":131350,"internal_node_id":"0.0-19.0-1.0"},{"rt":null,"stimulus":"<div style=\"background-color:#ff7157\"><h1 style=\"background-color:Tomato\">Bad luck! There was no prize in the box!</h1><h1 style=\"background-color:Tomato\">Remember, you need to keep going until you have 20 prizes!</h1><img id=\"box\" src=\"img/sad/greenopenboxsadthumb.png\"></img></div>","key_press":null,"trial_type":"html-keyboard-response","trial_index":25,"time_elapsed":132856,"internal_node_id":"0.0-19.0-1.0"},{"rt":573.8000000019383,"stimulus":"<p>Choose a box,</p>","button_pressed":1,"trial_type":"html-button-response","trial_index":26,"time_elapsed":133432,"internal_node_id":"0.0-19.1-0.1"},{"rate":0.07381589580235538,"trial_type":"html-keyboard-response","trial_index":27,"time_elapsed":133432,"internal_node_id":"0.0-19.1-1.1"},{"rt":null,"stimulus":"<div style=\"background-color:#ff7157\"><h1 style=\"background-color:Tomato\">Bad luck! There was no prize in the box!</h1><h1 style=\"background-color:Tomato\">Remember, you need to keep going until you have 20 prizes!</h1><img id=\"box\" src=\"img/sad/greenopenboxsadthumb.png\"></img></div>","key_press":null,"trial_type":"html-keyboard-response","trial_index":27,"time_elapsed":134935,"internal_node_id":"0.0-19.1-1.1"},{"rt":442.6500000008673,"stimulus":"<p>Choose a box,</p>","button_pressed":0,"trial_type":"html-button-response","trial_index":28,"time_elapsed":135380,"internal_node_id":"0.0-19.2-0.2"},{"rate":0.3654289313705623,"trial_type":"html-keyboard-response","trial_index":29,"time_elapsed":135380,"internal_node_id":"0.0-19.2-1.2"},{"rt":null,"stimulus":"<div style=\"background-color:#6dce98\"><h1 style=\"background-color:MediumSeaGreen\" >You won a prize! Well done!</h1><div style=\"background-color:#6dce98\"><h1 style=\"background-color:MediumSeaGreen\" >Only 19 left to go!</h1><img id=\"box\" src=\"img/prizes/ring.png\"></img><img id=\"box\" src=\"img/empty/blueopenbox.png\"></img></div>","key_press":null,"trial_type":"html-keyboard-response","trial_index":29,"time_elapsed":136882,"internal_node_id":"0.0-19.2-1.2"},{"rt":438.58000000182074,"stimulus":"<p>Choose a box,</p>","button_pressed":0,"trial_type":"html-button-response","trial_index":30,"time_elapsed":137323,"internal_node_id":"0.0-19.3-0.3"},{"rate":0.3654289313705623,"trial_type":"html-keyboard-response","trial_index":31,"time_elapsed":137323,"internal_node_id":"0.0-19.3-1.3"},{"rt":null,"stimulus":"<div style=\"background-color:#ff7157\"><h1 style=\"background-color:Tomato\">Bad luck! There was no prize in the box!</h1><h1 style=\"background-color:Tomato\">Remember, you need to keep going until you have 20 prizes!</h1><img id=\"box\" src=\"img/sad/blueopenboxsadthumb.png\"></img></div>","key_press":null,"trial_type":"html-keyboard-response","trial_index":31,"time_elapsed":138829,"internal_node_id":"0.0-19.3-1.3"},{"rt":171.46999999749823,"stimulus":"<p>Choose a box,</p>","button_pressed":0,"trial_type":"html-button-response","trial_index":32,"time_elapsed":139002,"internal_node_id":"0.0-19.4-0.4"},{"rate":0.3654289313705623,"trial_type":"html-keyboard-response","trial_index":33,"time_elapsed":139003,"internal_node_id":"0.0-19.4-1.4"},{"rt":null,"stimulus":"<div style=\"background-color:#6dce98\"><h1 style=\"background-color:MediumSeaGreen\" >You won a prize! Well done!</h1><div style=\"background-color:#6dce98\"><h1 style=\"background-color:MediumSeaGreen\" >Only 18 left to go!</h1><img id=\"box\" src=\"img/prizes/flowers.png\"></img><img id=\"box\" src=\"img/empty/blueopenbox.png\"></img></div>","key_press":null,"trial_type":"html-keyboard-response","trial_index":33,"time_elapsed":140504,"internal_node_id":"0.0-19.4-1.4"},{"rt":451.86499999908847,"stimulus":"<p>Choose a box,</p>","button_pressed":0,"trial_type":"html-button-response","trial_index":34,"time_elapsed":140959,"internal_node_id":"0.0-19.5-0.5"},{"rate":0.3654289313705623,"trial_type":"html-keyboard-response","trial_index":35,"time_elapsed":140959,"internal_node_id":"0.0-19.5-1.5"},{"rt":null,"stimulus":"<div style=\"background-color:#ff7157\"><h1 style=\"background-color:Tomato\">Bad luck! There was no prize in the box!</h1><h1 style=\"background-color:Tomato\">Remember, you need to keep going until you have 20 prizes!</h1><img id=\"box\" src=\"img/sad/blueopenboxsadthumb.png\"></img></div>","key_press":null,"trial_type":"html-keyboard-response","trial_index":35,"time_elapsed":142463,"internal_node_id":"0.0-19.5-1.5"},{"rt":331.160000001546,"stimulus":"<p>Choose a box,</p>","button_pressed":0,"trial_type":"html-button-response","trial_index":36,"time_elapsed":142796,"internal_node_id":"0.0-19.6-0.6"},{"rate":0.3654289313705623,"trial_type":"html-keyboard-response","trial_index":37,"time_elapsed":142796,"internal_node_id":"0.0-19.6-1.6"},{"rt":null,"stimulus":"<div style=\"background-color:#ff7157\"><h1 style=\"background-color:Tomato\">Bad luck! There was no prize in the box!</h1><h1 style=\"background-color:Tomato\">Remember, you need to keep going until you have 20 prizes!</h1><img id=\"box\" src=\"img/sad/blueopenboxsadthumb.png\"></img></div>","key_press":null,"trial_type":"html-keyboard-response","trial_index":37,"time_elapsed":144297,"internal_node_id":"0.0-19.6-1.6"},{"rt":358.59999999956926,"stimulus":"<p>Choose a box,</p>","button_pressed":1,"trial_type":"html-button-response","trial_index":38,"time_elapsed":144658,"internal_node_id":"0.0-19.7-0.7"},{"rate":0.07381589580235538,"trial_type":"html-keyboard-response","trial_index":39,"time_elapsed":144659,"internal_node_id":"0.0-19.7-1.7"},{"rt":null,"stimulus":"<div style=\"background-color:#ff7157\"><h1 style=\"background-color:Tomato\">Bad luck! There was no prize in the box!</h1><h1 style=\"background-color:Tomato\">Remember, you need to keep going until you have 20 prizes!</h1><img id=\"box\" src=\"img/sad/greenopenboxsadthumb.png\"></img></div>","key_press":null,"trial_type":"html-keyboard-response","trial_index":39,"time_elapsed":146161,"internal_node_id":"0.0-19.7-1.7"},{"rt":557.6299999993353,"stimulus":"<p>Choose a box,</p>","button_pressed":2,"trial_type":"html-button-response","trial_index":40,"time_elapsed":146720,"internal_node_id":"0.0-19.8-0.8"},{"rate":0.48596811601873424,"trial_type":"html-keyboard-response","trial_index":41,"time_elapsed":146720,"internal_node_id":"0.0-19.8-1.8"},{"rt":null,"stimulus":"<div style=\"background-color:#6dce98\"><h1 style=\"background-color:MediumSeaGreen\" >You won a prize! Well done!</h1><div style=\"background-color:#6dce98\"><h1 style=\"background-color:MediumSeaGreen\" >Only 17 left to go!</h1><img id=\"box\" src=\"img/prizes/choc.png\"></img><img id=\"box\" src=\"img/empty/purpleopenbox.png\"></img></div>","key_press":null,"trial_type":"html-keyboard-response","trial_index":41,"time_elapsed":148222,"internal_node_id":"0.0-19.8-1.8"},{"rt":390.24000000063097,"stimulus":"<p>Choose a box,</p>","button_pressed":1,"trial_type":"html-button-response","trial_index":42,"time_elapsed":148614,"internal_node_id":"0.0-19.9-0.9"},{"rate":0.07381589580235538,"trial_type":"html-keyboard-response","trial_index":43,"time_elapsed":148614,"internal_node_id":"0.0-19.9-1.9"},{"rt":null,"stimulus":"<div style=\"background-color:#ff7157\"><h1 style=\"background-color:Tomato\">Bad luck! There was no prize in the box!</h1><h1 style=\"background-color:Tomato\">Remember, you need to keep going until you have 20 prizes!</h1><img id=\"box\" src=\"img/sad/greenopenboxsadthumb.png\"></img></div>","key_press":null,"trial_type":"html-keyboard-response","trial_index":43,"time_elapsed":150118,"internal_node_id":"0.0-19.9-1.9"},{"rt":391.7150000015681,"stimulus":"<p>Choose a box,</p>","button_pressed":3,"trial_type":"html-button-response","trial_index":44,"time_elapsed":150513,"internal_node_id":"0.0-19.10-0.10"},{"rate":0.23109632366836533,"trial_type":"html-keyboard-response","trial_index":45,"time_elapsed":150513,"internal_node_id":"0.0-19.10-1.10"},{"rt":null,"stimulus":"<div style=\"background-color:#6dce98\"><h1 style=\"background-color:MediumSeaGreen\" >You won a prize! Well done!</h1><div style=\"background-color:#6dce98\"><h1 style=\"background-color:MediumSeaGreen\" >Only 16 left to go!</h1><img id=\"box\" src=\"img/prizes/yoyo.png\"></img><img id=\"box\" src=\"img/empty/redopenbox.png\"></img></div>","key_press":null,"trial_type":"html-keyboard-response","trial_index":45,"time_elapsed":152015,"internal_node_id":"0.0-19.10-1.10"},{"rt":374.67000000106054,"stimulus":"<p>Choose a box,</p>","button_pressed":0,"trial_type":"html-button-response","trial_index":46,"time_elapsed":152392,"internal_node_id":"0.0-19.11-0.11"},{"rate":0.3654289313705623,"trial_type":"html-keyboard-response","trial_index":47,"time_elapsed":152392,"internal_node_id":"0.0-19.11-1.11"},{"rt":null,"stimulus":"<div style=\"background-color:#6dce98\"><h1 style=\"background-color:MediumSeaGreen\" >You won a prize! Well done!</h1><div style=\"background-color:#6dce98\"><h1 style=\"background-color:MediumSeaGreen\" >Only 15 left to go!</h1><img id=\"box\" src=\"img/prizes/yoyo.png\"></img><img id=\"box\" src=\"img/empty/blueopenbox.png\"></img></div>","key_press":null,"trial_type":"html-keyboard-response","trial_index":47,"time_elapsed":153894,"internal_node_id":"0.0-19.11-1.11"},{"rt":398.66999999867403,"stimulus":"<p>Choose a box,</p>","button_pressed":1,"trial_type":"html-button-response","trial_index":48,"time_elapsed":154294,"internal_node_id":"0.0-19.12-0.12"},{"rate":0.07381589580235538,"trial_type":"html-keyboard-response","trial_index":49,"time_elapsed":154295,"internal_node_id":"0.0-19.12-1.12"},{"rt":null,"stimulus":"<div style=\"background-color:#ff7157\"><h1 style=\"background-color:Tomato\">Bad luck! There was no prize in the box!</h1><h1 style=\"background-color:Tomato\">Remember, you need to keep going until you have 20 prizes!</h1><img id=\"box\" src=\"img/sad/greenopenboxsadthumb.png\"></img></div>","key_press":null,"trial_type":"html-keyboard-response","trial_index":49,"time_elapsed":155797,"internal_node_id":"0.0-19.12-1.12"},{"rt":589.8500000002969,"stimulus":"<p>Choose a box,</p>","button_pressed":3,"trial_type":"html-button-response","trial_index":50,"time_elapsed":156388,"internal_node_id":"0.0-19.13-0.13"},{"rate":0.23109632366836533,"trial_type":"html-keyboard-response","trial_index":51,"time_elapsed":156389,"internal_node_id":"0.0-19.13-1.13"},{"rt":null,"stimulus":"<div style=\"background-color:#ff7157\"><h1 style=\"background-color:Tomato\">Bad luck! There was no prize in the box!</h1><h1 style=\"background-color:Tomato\">Remember, you need to keep going until you have 20 prizes!</h1><img id=\"box\" src=\"img/sad/redopenboxsadthumb.png\"></img></div>","key_press":null,"trial_type":"html-keyboard-response","trial_index":51,"time_elapsed":157890,"internal_node_id":"0.0-19.13-1.13"},{"rt":146.80500000031316,"stimulus":"<p>Choose a box,</p>","button_pressed":2,"trial_type":"html-button-response","trial_index":52,"time_elapsed":158039,"internal_node_id":"0.0-19.14-0.14"},{"rate":0.48596811601873424,"trial_type":"html-keyboard-response","trial_index":53,"time_elapsed":158039,"internal_node_id":"0.0-19.14-1.14"},{"rt":null,"stimulus":"<div style=\"background-color:#6dce98\"><h1 style=\"background-color:MediumSeaGreen\" >You won a prize! Well done!</h1><div style=\"background-color:#6dce98\"><h1 style=\"background-color:MediumSeaGreen\" >Only 14 left to go!</h1><img id=\"box\" src=\"img/prizes/choc.png\"></img><img id=\"box\" src=\"img/empty/purpleopenbox.png\"></img></div>","key_press":null,"trial_type":"html-keyboard-response","trial_index":53,"time_elapsed":159541,"internal_node_id":"0.0-19.14-1.14"},{"rt":411.0599999985425,"stimulus":"<p>Choose a box,</p>","button_pressed":2,"trial_type":"html-button-response","trial_index":54,"time_elapsed":159954,"internal_node_id":"0.0-19.15-0.15"},{"rate":0.48596811601873424,"trial_type":"html-keyboard-response","trial_index":55,"time_elapsed":159954,"internal_node_id":"0.0-19.15-1.15"},{"rt":null,"stimulus":"<div style=\"background-color:#6dce98\"><h1 style=\"background-color:MediumSeaGreen\" >You won a prize! Well done!</h1><div style=\"background-color:#6dce98\"><h1 style=\"background-color:MediumSeaGreen\" >Only 13 left to go!</h1><img id=\"box\" src=\"img/prizes/choc.png\"></img><img id=\"box\" src=\"img/empty/purpleopenbox.png\"></img></div>","key_press":null,"trial_type":"html-keyboard-response","trial_index":55,"time_elapsed":161456,"internal_node_id":"0.0-19.15-1.15"},{"rt":383.109999998851,"stimulus":"<p>Choose a box,</p>","button_pressed":2,"trial_type":"html-button-response","trial_index":56,"time_elapsed":161841,"internal_node_id":"0.0-19.16-0.16"},{"rate":0.48596811601873424,"trial_type":"html-keyboard-response","trial_index":57,"time_elapsed":161841,"internal_node_id":"0.0-19.16-1.16"},{"rt":null,"stimulus":"<div style=\"background-color:#ff7157\"><h1 style=\"background-color:Tomato\">Bad luck! There was no prize in the box!</h1><h1 style=\"background-color:Tomato\">Remember, you need to keep going until you have 20 prizes!</h1><img id=\"box\" src=\"img/sad/purpleopenboxsadthumb.png\"></img></div>","key_press":null,"trial_type":"html-keyboard-response","trial_index":57,"time_elapsed":163345,"internal_node_id":"0.0-19.16-1.16"},{"rt":409.17999999874155,"stimulus":"<p>Choose a box,</p>","button_pressed":0,"trial_type":"html-button-response","trial_index":58,"time_elapsed":163756,"internal_node_id":"0.0-19.17-0.17"},{"rate":0.3654289313705623,"trial_type":"html-keyboard-response","trial_index":59,"time_elapsed":163756,"internal_node_id":"0.0-19.17-1.17"},{"rt":null,"stimulus":"<div style=\"background-color:#ff7157\"><h1 style=\"background-color:Tomato\">Bad luck! There was no prize in the box!</h1><h1 style=\"background-color:Tomato\">Remember, you need to keep going until you have 20 prizes!</h1><img id=\"box\" src=\"img/sad/blueopenboxsadthumb.png\"></img></div>","key_press":null,"trial_type":"html-keyboard-response","trial_index":59,"time_elapsed":165262,"internal_node_id":"0.0-19.17-1.17"},{"rt":565.3850000016973,"stimulus":"<p>Choose a box,</p>","button_pressed":1,"trial_type":"html-button-response","trial_index":60,"time_elapsed":165830,"internal_node_id":"0.0-19.18-0.18"},{"rate":0.07381589580235538,"trial_type":"html-keyboard-response","trial_index":61,"time_elapsed":165830,"internal_node_id":"0.0-19.18-1.18"},{"rt":null,"stimulus":"<div style=\"background-color:#ff7157\"><h1 style=\"background-color:Tomato\">Bad luck! There was no prize in the box!</h1><h1 style=\"background-color:Tomato\">Remember, you need to keep going until you have 20 prizes!</h1><img id=\"box\" src=\"img/sad/greenopenboxsadthumb.png\"></img></div>","key_press":null,"trial_type":"html-keyboard-response","trial_index":61,"time_elapsed":167332,"internal_node_id":"0.0-19.18-1.18"},{"rt":476.105000001553,"stimulus":"<p>Choose a box,</p>","button_pressed":3,"trial_type":"html-button-response","trial_index":62,"time_elapsed":167810,"internal_node_id":"0.0-19.19-0.19"},{"rate":0.23109632366836533,"trial_type":"html-keyboard-response","trial_index":63,"time_elapsed":167810,"internal_node_id":"0.0-19.19-1.19"},{"rt":null,"stimulus":"<div style=\"background-color:#ff7157\"><h1 style=\"background-color:Tomato\">Bad luck! There was no prize in the box!</h1><h1 style=\"background-color:Tomato\">Remember, you need to keep going until you have 20 prizes!</h1><img id=\"box\" src=\"img/sad/redopenboxsadthumb.png\"></img></div>","key_press":null,"trial_type":"html-keyboard-response","trial_index":63,"time_elapsed":169313,"internal_node_id":"0.0-19.19-1.19"},{"rt":650.5300000026182,"stimulus":"<p>Choose a box,</p>","button_pressed":2,"trial_type":"html-button-response","trial_index":64,"time_elapsed":169966,"internal_node_id":"0.0-19.20-0.20"},{"rate":0.48596811601873424,"trial_type":"html-keyboard-response","trial_index":65,"time_elapsed":169966,"internal_node_id":"0.0-19.20-1.20"},{"rt":null,"stimulus":"<div style=\"background-color:#6dce98\"><h1 style=\"background-color:MediumSeaGreen\" >You won a prize! Well done!</h1><div style=\"background-color:#6dce98\"><h1 style=\"background-color:MediumSeaGreen\" >Only 12 left to go!</h1><img id=\"box\" src=\"img/prizes/bear.png\"></img><img id=\"box\" src=\"img/empty/purpleopenbox.png\"></img></div>","key_press":null,"trial_type":"html-keyboard-response","trial_index":65,"time_elapsed":171468,"internal_node_id":"0.0-19.20-1.20"},{"rt":401.8049999976938,"stimulus":"<p>Choose a box,</p>","button_pressed":2,"trial_type":"html-button-response","trial_index":66,"time_elapsed":171872,"internal_node_id":"0.0-19.21-0.21"},{"rate":0.48596811601873424,"trial_type":"html-keyboard-response","trial_index":67,"time_elapsed":171873,"internal_node_id":"0.0-19.21-1.21"},{"rt":null,"stimulus":"<div style=\"background-color:#6dce98\"><h1 style=\"background-color:MediumSeaGreen\" >You won a prize! Well done!</h1><div style=\"background-color:#6dce98\"><h1 style=\"background-color:MediumSeaGreen\" >Only 11 left to go!</h1><img id=\"box\" src=\"img/prizes/yoyo.png\"></img><img id=\"box\" src=\"img/empty/purpleopenbox.png\"></img></div>","key_press":null,"trial_type":"html-keyboard-response","trial_index":67,"time_elapsed":173376,"internal_node_id":"0.0-19.21-1.21"},{"rt":382.4750000021595,"stimulus":"<p>Choose a box,</p>","button_pressed":0,"trial_type":"html-button-response","trial_index":68,"time_elapsed":173760,"internal_node_id":"0.0-19.22-0.22"},{"rate":0.3654289313705623,"trial_type":"html-keyboard-response","trial_index":69,"time_elapsed":173760,"internal_node_id":"0.0-19.22-1.22"},{"rt":null,"stimulus":"<div style=\"background-color:#ff7157\"><h1 style=\"background-color:Tomato\">Bad luck! There was no prize in the box!</h1><h1 style=\"background-color:Tomato\">Remember, you need to keep going until you have 20 prizes!</h1><img id=\"box\" src=\"img/sad/blueopenboxsadthumb.png\"></img></div>","key_press":null,"trial_type":"html-keyboard-response","trial_index":69,"time_elapsed":175261,"internal_node_id":"0.0-19.22-1.22"},{"rt":349.66999999960535,"stimulus":"<p>Choose a box,</p>","button_pressed":2,"trial_type":"html-button-response","trial_index":70,"time_elapsed":175613,"internal_node_id":"0.0-19.23-0.23"},{"rate":0.48596811601873424,"trial_type":"html-keyboard-response","trial_index":71,"time_elapsed":175614,"internal_node_id":"0.0-19.23-1.23"},{"rt":null,"stimulus":"<div style=\"background-color:#ff7157\"><h1 style=\"background-color:Tomato\">Bad luck! There was no prize in the box!</h1><h1 style=\"background-color:Tomato\">Remember, you need to keep going until you have 20 prizes!</h1><img id=\"box\" src=\"img/sad/purpleopenboxsadthumb.png\"></img></div>","key_press":null,"trial_type":"html-keyboard-response","trial_index":71,"time_elapsed":177116,"internal_node_id":"0.0-19.23-1.23"},{"rt":345.0599999996484,"stimulus":"<p>Choose a box,</p>","button_pressed":1,"trial_type":"html-button-response","trial_index":72,"time_elapsed":177464,"internal_node_id":"0.0-19.24-0.24"},{"rate":0.07381589580235538,"trial_type":"html-keyboard-response","trial_index":73,"time_elapsed":177464,"internal_node_id":"0.0-19.24-1.24"},{"rt":null,"stimulus":"<div style=\"background-color:#ff7157\"><h1 style=\"background-color:Tomato\">Bad luck! There was no prize in the box!</h1><h1 style=\"background-color:Tomato\">Remember, you need to keep going until you have 20 prizes!</h1><img id=\"box\" src=\"img/sad/greenopenboxsadthumb.png\"></img></div>","key_press":null,"trial_type":"html-keyboard-response","trial_index":73,"time_elapsed":178966,"internal_node_id":"0.0-19.24-1.24"},{"rt":300.89999999836436,"stimulus":"<p>Choose a box,</p>","button_pressed":2,"trial_type":"html-button-response","trial_index":74,"time_elapsed":179269,"internal_node_id":"0.0-19.25-0.25"},{"rate":0.48596811601873424,"trial_type":"html-keyboard-response","trial_index":75,"time_elapsed":179269,"internal_node_id":"0.0-19.25-1.25"},{"rt":null,"stimulus":"<div style=\"background-color:#6dce98\"><h1 style=\"background-color:MediumSeaGreen\" >You won a prize! Well done!</h1><div style=\"background-color:#6dce98\"><h1 style=\"background-color:MediumSeaGreen\" >Only 10 left to go!</h1><img id=\"box\" src=\"img/prizes/choc.png\"></img><img id=\"box\" src=\"img/empty/purpleopenbox.png\"></img></div>","key_press":null,"trial_type":"html-keyboard-response","trial_index":75,"time_elapsed":180770,"internal_node_id":"0.0-19.25-1.25"},{"rt":375.10499999916647,"stimulus":"<p>Choose a box,</p>","button_pressed":2,"trial_type":"html-button-response","trial_index":76,"time_elapsed":181148,"internal_node_id":"0.0-19.26-0.26"},{"rate":0.48596811601873424,"trial_type":"html-keyboard-response","trial_index":77,"time_elapsed":181148,"internal_node_id":"0.0-19.26-1.26"},{"rt":null,"stimulus":"<div style=\"background-color:#ff7157\"><h1 style=\"background-color:Tomato\">Bad luck! There was no prize in the box!</h1><h1 style=\"background-color:Tomato\">Remember, you need to keep going until you have 20 prizes!</h1><img id=\"box\" src=\"img/sad/purpleopenboxsadthumb.png\"></img></div>","key_press":null,"trial_type":"html-keyboard-response","trial_index":77,"time_elapsed":182652,"internal_node_id":"0.0-19.26-1.26"},{"rt":513.1000000001222,"stimulus":"<p>Choose a box,</p>","button_pressed":3,"trial_type":"html-button-response","trial_index":78,"time_elapsed":183169,"internal_node_id":"0.0-19.27-0.27"},{"rate":0.23109632366836533,"trial_type":"html-keyboard-response","trial_index":79,"time_elapsed":183169,"internal_node_id":"0.0-19.27-1.27"},{"rt":null,"stimulus":"<div style=\"background-color:#ff7157\"><h1 style=\"background-color:Tomato\">Bad luck! There was no prize in the box!</h1><h1 style=\"background-color:Tomato\">Remember, you need to keep going until you have 20 prizes!</h1><img id=\"box\" src=\"img/sad/redopenboxsadthumb.png\"></img></div>","key_press":null,"trial_type":"html-keyboard-response","trial_index":79,"time_elapsed":184671,"internal_node_id":"0.0-19.27-1.27"},{"rt":325.0999999982014,"stimulus":"<p>Choose a box,</p>","button_pressed":0,"trial_type":"html-button-response","trial_index":80,"time_elapsed":184999,"internal_node_id":"0.0-19.28-0.28"},{"rate":0.3654289313705623,"trial_type":"html-keyboard-response","trial_index":81,"time_elapsed":184999,"internal_node_id":"0.0-19.28-1.28"},{"rt":null,"stimulus":"<div style=\"background-color:#ff7157\"><h1 style=\"background-color:Tomato\">Bad luck! There was no prize in the box!</h1><h1 style=\"background-color:Tomato\">Remember, you need to keep going until you have 20 prizes!</h1><img id=\"box\" src=\"img/sad/blueopenboxsadthumb.png\"></img></div>","key_press":null,"trial_type":"html-keyboard-response","trial_index":81,"time_elapsed":186504,"internal_node_id":"0.0-19.28-1.28"},{"rt":342.1550000020943,"stimulus":"<p>Choose a box,</p>","button_pressed":1,"trial_type":"html-button-response","trial_index":82,"time_elapsed":186849,"internal_node_id":"0.0-19.29-0.29"},{"rate":0.07381589580235538,"trial_type":"html-keyboard-response","trial_index":83,"time_elapsed":186849,"internal_node_id":"0.0-19.29-1.29"},{"rt":null,"stimulus":"<div style=\"background-color:#ff7157\"><h1 style=\"background-color:Tomato\">Bad luck! There was no prize in the box!</h1><h1 style=\"background-color:Tomato\">Remember, you need to keep going until you have 20 prizes!</h1><img id=\"box\" src=\"img/sad/greenopenboxsadthumb.png\"></img></div>","key_press":null,"trial_type":"html-keyboard-response","trial_index":83,"time_elapsed":188351,"internal_node_id":"0.0-19.29-1.29"},{"rt":146.82499999980791,"stimulus":"<p>Choose a box,</p>","button_pressed":2,"trial_type":"html-button-response","trial_index":84,"time_elapsed":188500,"internal_node_id":"0.0-19.30-0.30"},{"rate":0.48596811601873424,"trial_type":"html-keyboard-response","trial_index":85,"time_elapsed":188500,"internal_node_id":"0.0-19.30-1.30"},{"rt":null,"stimulus":"<div style=\"background-color:#6dce98\"><h1 style=\"background-color:MediumSeaGreen\" >You won a prize! Well done!</h1><div style=\"background-color:#6dce98\"><h1 style=\"background-color:MediumSeaGreen\" >Only 9 left to go!</h1><img id=\"box\" src=\"img/prizes/choc.png\"></img><img id=\"box\" src=\"img/empty/purpleopenbox.png\"></img></div>","key_press":null,"trial_type":"html-keyboard-response","trial_index":85,"time_elapsed":190006,"internal_node_id":"0.0-19.30-1.30"},{"rt":1154.9999999988358,"stimulus":"<p>Choose a box,</p>","button_pressed":0,"trial_type":"html-button-response","trial_index":86,"time_elapsed":191163,"internal_node_id":"0.0-19.31-0.31"},{"rate":0.3654289313705623,"trial_type":"html-keyboard-response","trial_index":87,"time_elapsed":191164,"internal_node_id":"0.0-19.31-1.31"},{"rt":null,"stimulus":"<div style=\"background-color:#ff7157\"><h1 style=\"background-color:Tomato\">Bad luck! There was no prize in the box!</h1><h1 style=\"background-color:Tomato\">Remember, you need to keep going until you have 20 prizes!</h1><img id=\"box\" src=\"img/sad/blueopenboxsadthumb.png\"></img></div>","key_press":null,"trial_type":"html-keyboard-response","trial_index":87,"time_elapsed":192665,"internal_node_id":"0.0-19.31-1.31"},{"rt":463.4550000009767,"stimulus":"<p>Choose a box,</p>","button_pressed":2,"trial_type":"html-button-response","trial_index":88,"time_elapsed":193131,"internal_node_id":"0.0-19.32-0.32"},{"rate":0.48596811601873424,"trial_type":"html-keyboard-response","trial_index":89,"time_elapsed":193131,"internal_node_id":"0.0-19.32-1.32"},{"rt":null,"stimulus":"<div style=\"background-color:#6dce98\"><h1 style=\"background-color:MediumSeaGreen\" >You won a prize! Well done!</h1><div style=\"background-color:#6dce98\"><h1 style=\"background-color:MediumSeaGreen\" >Only 8 left to go!</h1><img id=\"box\" src=\"img/prizes/coins.png\"></img><img id=\"box\" src=\"img/empty/purpleopenbox.png\"></img></div>","key_press":null,"trial_type":"html-keyboard-response","trial_index":89,"time_elapsed":194633,"internal_node_id":"0.0-19.32-1.32"},{"rt":785.7700000022305,"stimulus":"<p>Choose a box,</p>","button_pressed":2,"trial_type":"html-button-response","trial_index":90,"time_elapsed":195421,"internal_node_id":"0.0-19.33-0.33"},{"rate":0.48596811601873424,"trial_type":"html-keyboard-response","trial_index":91,"time_elapsed":195421,"internal_node_id":"0.0-19.33-1.33"},{"rt":null,"stimulus":"<div style=\"background-color:#6dce98\"><h1 style=\"background-color:MediumSeaGreen\" >You won a prize! Well done!</h1><div style=\"background-color:#6dce98\"><h1 style=\"background-color:MediumSeaGreen\" >Only 7 left to go!</h1><img id=\"box\" src=\"img/prizes/bear.png\"></img><img id=\"box\" src=\"img/empty/purpleopenbox.png\"></img></div>","key_press":null,"trial_type":"html-keyboard-response","trial_index":91,"time_elapsed":196923,"internal_node_id":"0.0-19.33-1.33"},{"rt":463.1950000002689,"stimulus":"<p>Choose a box,</p>","button_pressed":2,"trial_type":"html-button-response","trial_index":92,"time_elapsed":197389,"internal_node_id":"0.0-19.34-0.34"},{"rate":0.48596811601873424,"trial_type":"html-keyboard-response","trial_index":93,"time_elapsed":197389,"internal_node_id":"0.0-19.34-1.34"},{"rt":null,"stimulus":"<div style=\"background-color:#6dce98\"><h1 style=\"background-color:MediumSeaGreen\" >You won a prize! Well done!</h1><div style=\"background-color:#6dce98\"><h1 style=\"background-color:MediumSeaGreen\" >Only 6 left to go!</h1><img id=\"box\" src=\"img/prizes/beachball.png\"></img><img id=\"box\" src=\"img/empty/purpleopenbox.png\"></img></div>","key_press":null,"trial_type":"html-keyboard-response","trial_index":93,"time_elapsed":198891,"internal_node_id":"0.0-19.34-1.34"},{"rt":496.49499999941327,"stimulus":"<p>Choose a box,</p>","button_pressed":0,"trial_type":"html-button-response","trial_index":94,"time_elapsed":199390,"internal_node_id":"0.0-19.35-0.35"},{"rate":0.3654289313705623,"trial_type":"html-keyboard-response","trial_index":95,"time_elapsed":199390,"internal_node_id":"0.0-19.35-1.35"},{"rt":null,"stimulus":"<div style=\"background-color:#ff7157\"><h1 style=\"background-color:Tomato\">Bad luck! There was no prize in the box!</h1><h1 style=\"background-color:Tomato\">Remember, you need to keep going until you have 20 prizes!</h1><img id=\"box\" src=\"img/sad/blueopenboxsadthumb.png\"></img></div>","key_press":null,"trial_type":"html-keyboard-response","trial_index":95,"time_elapsed":200892,"internal_node_id":"0.0-19.35-1.35"},{"rt":369.9300000007497,"stimulus":"<p>Choose a box,</p>","button_pressed":1,"trial_type":"html-button-response","trial_index":96,"time_elapsed":201264,"internal_node_id":"0.0-19.36-0.36"},{"rate":0.07381589580235538,"trial_type":"html-keyboard-response","trial_index":97,"time_elapsed":201264,"internal_node_id":"0.0-19.36-1.36"},{"rt":null,"stimulus":"<div style=\"background-color:#ff7157\"><h1 style=\"background-color:Tomato\">Bad luck! There was no prize in the box!</h1><h1 style=\"background-color:Tomato\">Remember, you need to keep going until you have 20 prizes!</h1><img id=\"box\" src=\"img/sad/greenopenboxsadthumb.png\"></img></div>","key_press":null,"trial_type":"html-keyboard-response","trial_index":97,"time_elapsed":202766,"internal_node_id":"0.0-19.36-1.36"},{"rt":342.53999999782536,"stimulus":"<p>Choose a box,</p>","button_pressed":2,"trial_type":"html-button-response","trial_index":98,"time_elapsed":203111,"internal_node_id":"0.0-19.37-0.37"},{"rate":0.48596811601873424,"trial_type":"html-keyboard-response","trial_index":99,"time_elapsed":203111,"internal_node_id":"0.0-19.37-1.37"},{"rt":null,"stimulus":"<div style=\"background-color:#6dce98\"><h1 style=\"background-color:MediumSeaGreen\" >You won a prize! Well done!</h1><div style=\"background-color:#6dce98\"><h1 style=\"background-color:MediumSeaGreen\" >Only 5 left to go!</h1><img id=\"box\" src=\"img/prizes/flowers.png\"></img><img id=\"box\" src=\"img/empty/purpleopenbox.png\"></img></div>","key_press":null,"trial_type":"html-keyboard-response","trial_index":99,"time_elapsed":204617,"internal_node_id":"0.0-19.37-1.37"},{"rt":370.43500000072527,"stimulus":"<p>Choose a box,</p>","button_pressed":2,"trial_type":"html-button-response","trial_index":100,"time_elapsed":204990,"internal_node_id":"0.0-19.38-0.38"},{"rate":0.48596811601873424,"trial_type":"html-keyboard-response","trial_index":101,"time_elapsed":204990,"internal_node_id":"0.0-19.38-1.38"},{"rt":null,"stimulus":"<div style=\"background-color:#ff7157\"><h1 style=\"background-color:Tomato\">Bad luck! There was no prize in the box!</h1><h1 style=\"background-color:Tomato\">Remember, you need to keep going until you have 20 prizes!</h1><img id=\"box\" src=\"img/sad/purpleopenboxsadthumb.png\"></img></div>","key_press":null,"trial_type":"html-keyboard-response","trial_index":101,"time_elapsed":206492,"internal_node_id":"0.0-19.38-1.38"},{"rt":402.6799999992363,"stimulus":"<p>Choose a box,</p>","button_pressed":2,"trial_type":"html-button-response","trial_index":102,"time_elapsed":206896,"internal_node_id":"0.0-19.39-0.39"},{"rate":0.48596811601873424,"trial_type":"html-keyboard-response","trial_index":103,"time_elapsed":206896,"internal_node_id":"0.0-19.39-1.39"},{"rt":null,"stimulus":"<div style=\"background-color:#ff7157\"><h1 style=\"background-color:Tomato\">Bad luck! There was no prize in the box!</h1><h1 style=\"background-color:Tomato\">Remember, you need to keep going until you have 20 prizes!</h1><img id=\"box\" src=\"img/sad/purpleopenboxsadthumb.png\"></img></div>","key_press":null,"trial_type":"html-keyboard-response","trial_index":103,"time_elapsed":208398,"internal_node_id":"0.0-19.39-1.39"},{"rt":407.3150000003807,"stimulus":"<p>Choose a box,</p>","button_pressed":3,"trial_type":"html-button-response","trial_index":104,"time_elapsed":208808,"internal_node_id":"0.0-19.40-0.40"},{"rate":0.23109632366836533,"trial_type":"html-keyboard-response","trial_index":105,"time_elapsed":208808,"internal_node_id":"0.0-19.40-1.40"},{"rt":null,"stimulus":"<div style=\"background-color:#ff7157\"><h1 style=\"background-color:Tomato\">Bad luck! There was no prize in the box!</h1><h1 style=\"background-color:Tomato\">Remember, you need to keep going until you have 20 prizes!</h1><img id=\"box\" src=\"img/sad/redopenboxsadthumb.png\"></img></div>","key_press":null,"trial_type":"html-keyboard-response","trial_index":105,"time_elapsed":210310,"internal_node_id":"0.0-19.40-1.40"},{"rt":313.2899999982328,"stimulus":"<p>Choose a box,</p>","button_pressed":1,"trial_type":"html-button-response","trial_index":106,"time_elapsed":210625,"internal_node_id":"0.0-19.41-0.41"},{"rate":0.07381589580235538,"trial_type":"html-keyboard-response","trial_index":107,"time_elapsed":210625,"internal_node_id":"0.0-19.41-1.41"},{"rt":null,"stimulus":"<div style=\"background-color:#ff7157\"><h1 style=\"background-color:Tomato\">Bad luck! There was no prize in the box!</h1><h1 style=\"background-color:Tomato\">Remember, you need to keep going until you have 20 prizes!</h1><img id=\"box\" src=\"img/sad/greenopenboxsadthumb.png\"></img></div>","key_press":null,"trial_type":"html-keyboard-response","trial_index":107,"time_elapsed":212127,"internal_node_id":"0.0-19.41-1.41"},{"rt":341.3199999995413,"stimulus":"<p>Choose a box,</p>","button_pressed":0,"trial_type":"html-button-response","trial_index":108,"time_elapsed":212471,"internal_node_id":"0.0-19.42-0.42"},{"rate":0.3654289313705623,"trial_type":"html-keyboard-response","trial_index":109,"time_elapsed":212471,"internal_node_id":"0.0-19.42-1.42"},{"rt":null,"stimulus":"<div style=\"background-color:#ff7157\"><h1 style=\"background-color:Tomato\">Bad luck! There was no prize in the box!</h1><h1 style=\"background-color:Tomato\">Remember, you need to keep going until you have 20 prizes!</h1><img id=\"box\" src=\"img/sad/blueopenboxsadthumb.png\"></img></div>","key_press":null,"trial_type":"html-keyboard-response","trial_index":109,"time_elapsed":213977,"internal_node_id":"0.0-19.42-1.42"},{"rt":520.3249999976833,"stimulus":"<p>Choose a box,</p>","button_pressed":2,"trial_type":"html-button-response","trial_index":110,"time_elapsed":214500,"internal_node_id":"0.0-19.43-0.43"},{"rate":0.48596811601873424,"trial_type":"html-keyboard-response","trial_index":111,"time_elapsed":214500,"internal_node_id":"0.0-19.43-1.43"},{"rt":null,"stimulus":"<div style=\"background-color:#ff7157\"><h1 style=\"background-color:Tomato\">Bad luck! There was no prize in the box!</h1><h1 style=\"background-color:Tomato\">Remember, you need to keep going until you have 20 prizes!</h1><img id=\"box\" src=\"img/sad/purpleopenboxsadthumb.png\"></img></div>","key_press":null,"trial_type":"html-keyboard-response","trial_index":111,"time_elapsed":216002,"internal_node_id":"0.0-19.43-1.43"},{"rt":562.419999998383,"stimulus":"<p>Choose a box,</p>","button_pressed":2,"trial_type":"html-button-response","trial_index":112,"time_elapsed":216566,"internal_node_id":"0.0-19.44-0.44"},{"rate":0.48596811601873424,"trial_type":"html-keyboard-response","trial_index":113,"time_elapsed":216566,"internal_node_id":"0.0-19.44-1.44"},{"rt":null,"stimulus":"<div style=\"background-color:#6dce98\"><h1 style=\"background-color:MediumSeaGreen\" >You won a prize! Well done!</h1><div style=\"background-color:#6dce98\"><h1 style=\"background-color:MediumSeaGreen\" >Only 4 left to go!</h1><img id=\"box\" src=\"img/prizes/bear.png\"></img><img id=\"box\" src=\"img/empty/purpleopenbox.png\"></img></div>","key_press":null,"trial_type":"html-keyboard-response","trial_index":113,"time_elapsed":218068,"internal_node_id":"0.0-19.44-1.44"},{"rt":378.5599999973783,"stimulus":"<p>Choose a box,</p>","button_pressed":2,"trial_type":"html-button-response","trial_index":114,"time_elapsed":218449,"internal_node_id":"0.0-19.45-0.45"},{"rate":0.48596811601873424,"trial_type":"html-keyboard-response","trial_index":115,"time_elapsed":218449,"internal_node_id":"0.0-19.45-1.45"},{"rt":null,"stimulus":"<div style=\"background-color:#6dce98\"><h1 style=\"background-color:MediumSeaGreen\" >You won a prize! Well done!</h1><div style=\"background-color:#6dce98\"><h1 style=\"background-color:MediumSeaGreen\" >Only 3 left to go!</h1><img id=\"box\" src=\"img/prizes/flowers.png\"></img><img id=\"box\" src=\"img/empty/purpleopenbox.png\"></img></div>","key_press":null,"trial_type":"html-keyboard-response","trial_index":115,"time_elapsed":219950,"internal_node_id":"0.0-19.45-1.45"},{"rt":391.00999999936903,"stimulus":"<p>Choose a box,</p>","button_pressed":2,"trial_type":"html-button-response","trial_index":116,"time_elapsed":220344,"internal_node_id":"0.0-19.46-0.46"},{"rate":0.48596811601873424,"trial_type":"html-keyboard-response","trial_index":117,"time_elapsed":220344,"internal_node_id":"0.0-19.46-1.46"},{"rt":null,"stimulus":"<div style=\"background-color:#6dce98\"><h1 style=\"background-color:MediumSeaGreen\" >You won a prize! Well done!</h1><div style=\"background-color:#6dce98\"><h1 style=\"background-color:MediumSeaGreen\" >Only 2 left to go!</h1><img id=\"box\" src=\"img/prizes/ring.png\"></img><img id=\"box\" src=\"img/empty/purpleopenbox.png\"></img></div>","key_press":null,"trial_type":"html-keyboard-response","trial_index":117,"time_elapsed":221845,"internal_node_id":"0.0-19.46-1.46"},{"rt":309.4700000001467,"stimulus":"<p>Choose a box,</p>","button_pressed":2,"trial_type":"html-button-response","trial_index":118,"time_elapsed":222157,"internal_node_id":"0.0-19.47-0.47"},{"rate":0.48596811601873424,"trial_type":"html-keyboard-response","trial_index":119,"time_elapsed":222157,"internal_node_id":"0.0-19.47-1.47"},{"rt":null,"stimulus":"<div style=\"background-color:#ff7157\"><h1 style=\"background-color:Tomato\">Bad luck! There was no prize in the box!</h1><h1 style=\"background-color:Tomato\">Remember, you need to keep going until you have 20 prizes!</h1><img id=\"box\" src=\"img/sad/purpleopenboxsadthumb.png\"></img></div>","key_press":null,"trial_type":"html-keyboard-response","trial_index":119,"time_elapsed":223659,"internal_node_id":"0.0-19.47-1.47"},{"rt":402.3949999973411,"stimulus":"<p>Choose a box,</p>","button_pressed":2,"trial_type":"html-button-response","trial_index":120,"time_elapsed":224064,"internal_node_id":"0.0-19.48-0.48"},{"rate":0.48596811601873424,"trial_type":"html-keyboard-response","trial_index":121,"time_elapsed":224064,"internal_node_id":"0.0-19.48-1.48"},{"rt":null,"stimulus":"<div style=\"background-color:#ff7157\"><h1 style=\"background-color:Tomato\">Bad luck! There was no prize in the box!</h1><h1 style=\"background-color:Tomato\">Remember, you need to keep going until you have 20 prizes!</h1><img id=\"box\" src=\"img/sad/purpleopenboxsadthumb.png\"></img></div>","key_press":null,"trial_type":"html-keyboard-response","trial_index":121,"time_elapsed":225569,"internal_node_id":"0.0-19.48-1.48"},{"rt":462.984999998298,"stimulus":"<p>Choose a box,</p>","button_pressed":0,"trial_type":"html-button-response","trial_index":122,"time_elapsed":226033,"internal_node_id":"0.0-19.49-0.49"},{"rate":0.3654289313705623,"trial_type":"html-keyboard-response","trial_index":123,"time_elapsed":226033,"internal_node_id":"0.0-19.49-1.49"},{"rt":null,"stimulus":"<div style=\"background-color:#ff7157\"><h1 style=\"background-color:Tomato\">Bad luck! There was no prize in the box!</h1><h1 style=\"background-color:Tomato\">Remember, you need to keep going until you have 20 prizes!</h1><img id=\"box\" src=\"img/sad/blueopenboxsadthumb.png\"></img></div>","key_press":null,"trial_type":"html-keyboard-response","trial_index":123,"time_elapsed":227537,"internal_node_id":"0.0-19.49-1.49"},{"rt":359.83000000123866,"stimulus":"<p>Choose a box,</p>","button_pressed":1,"trial_type":"html-button-response","trial_index":124,"time_elapsed":227899,"internal_node_id":"0.0-19.50-0.50"},{"rate":0.07381589580235538,"trial_type":"html-keyboard-response","trial_index":125,"time_elapsed":227899,"internal_node_id":"0.0-19.50-1.50"},{"rt":null,"stimulus":"<div style=\"background-color:#ff7157\"><h1 style=\"background-color:Tomato\">Bad luck! There was no prize in the box!</h1><h1 style=\"background-color:Tomato\">Remember, you need to keep going until you have 20 prizes!</h1><img id=\"box\" src=\"img/sad/greenopenboxsadthumb.png\"></img></div>","key_press":null,"trial_type":"html-keyboard-response","trial_index":125,"time_elapsed":229401,"internal_node_id":"0.0-19.50-1.50"},{"rt":358.619999999064,"stimulus":"<p>Choose a box,</p>","button_pressed":3,"trial_type":"html-button-response","trial_index":126,"time_elapsed":229762,"internal_node_id":"0.0-19.51-0.51"},{"rate":0.23109632366836533,"trial_type":"html-keyboard-response","trial_index":127,"time_elapsed":229762,"internal_node_id":"0.0-19.51-1.51"},{"rt":null,"stimulus":"<div style=\"background-color:#ff7157\"><h1 style=\"background-color:Tomato\">Bad luck! There was no prize in the box!</h1><h1 style=\"background-color:Tomato\">Remember, you need to keep going until you have 20 prizes!</h1><img id=\"box\" src=\"img/sad/redopenboxsadthumb.png\"></img></div>","key_press":null,"trial_type":"html-keyboard-response","trial_index":127,"time_elapsed":231264,"internal_node_id":"0.0-19.51-1.51"},{"rt":337.4650000005204,"stimulus":"<p>Choose a box,</p>","button_pressed":2,"trial_type":"html-button-response","trial_index":128,"time_elapsed":231603,"internal_node_id":"0.0-19.52-0.52"},{"rate":0.48596811601873424,"trial_type":"html-keyboard-response","trial_index":129,"time_elapsed":231603,"internal_node_id":"0.0-19.52-1.52"},{"rt":null,"stimulus":"<div style=\"background-color:#6dce98\"><h1 style=\"background-color:MediumSeaGreen\" >You won a prize! Well done!</h1><div style=\"background-color:#6dce98\"><h1 style=\"background-color:MediumSeaGreen\" >Only 1 left to go!</h1><img id=\"box\" src=\"img/prizes/flowers.png\"></img><img id=\"box\" src=\"img/empty/purpleopenbox.png\"></img></div>","key_press":null,"trial_type":"html-keyboard-response","trial_index":129,"time_elapsed":233105,"internal_node_id":"0.0-19.52-1.52"},{"rt":772.9650000001129,"stimulus":"<p>Choose a box,</p>","button_pressed":2,"trial_type":"html-button-response","trial_index":130,"time_elapsed":233881,"internal_node_id":"0.0-19.53-0.53"},{"rate":0.48596811601873424,"trial_type":"html-keyboard-response","trial_index":131,"time_elapsed":233881,"internal_node_id":"0.0-19.53-1.53"},{"rt":null,"stimulus":"<div style=\"background-color:#ff7157\"><h1 style=\"background-color:Tomato\">Bad luck! There was no prize in the box!</h1><h1 style=\"background-color:Tomato\">Remember, you need to keep going until you have 20 prizes!</h1><img id=\"box\" src=\"img/sad/purpleopenboxsadthumb.png\"></img></div>","key_press":null,"trial_type":"html-keyboard-response","trial_index":131,"time_elapsed":235383,"internal_node_id":"0.0-19.53-1.53"},{"rt":200.10000000183936,"stimulus":"<p>Choose a box,</p>","button_pressed":1,"trial_type":"html-button-response","trial_index":132,"time_elapsed":235585,"internal_node_id":"0.0-19.54-0.54"},{"rate":0.07381589580235538,"trial_type":"html-keyboard-response","trial_index":133,"time_elapsed":235585,"internal_node_id":"0.0-19.54-1.54"},{"rt":null,"stimulus":"<div style=\"background-color:#ff7157\"><h1 style=\"background-color:Tomato\">Bad luck! There was no prize in the box!</h1><h1 style=\"background-color:Tomato\">Remember, you need to keep going until you have 20 prizes!</h1><img id=\"box\" src=\"img/sad/greenopenboxsadthumb.png\"></img></div>","key_press":null,"trial_type":"html-keyboard-response","trial_index":133,"time_elapsed":237087,"internal_node_id":"0.0-19.54-1.54"},{"rt":317.05499999952735,"stimulus":"<p>Choose a box,</p>","button_pressed":0,"trial_type":"html-button-response","trial_index":134,"time_elapsed":237406,"internal_node_id":"0.0-19.55-0.55"},{"rate":0.3654289313705623,"trial_type":"html-keyboard-response","trial_index":135,"time_elapsed":237406,"internal_node_id":"0.0-19.55-1.55"},{"rt":null,"stimulus":"<div style=\"background-color:#ff7157\"><h1 style=\"background-color:Tomato\">Bad luck! There was no prize in the box!</h1><h1 style=\"background-color:Tomato\">Remember, you need to keep going until you have 20 prizes!</h1><img id=\"box\" src=\"img/sad/blueopenboxsadthumb.png\"></img></div>","key_press":null,"trial_type":"html-keyboard-response","trial_index":135,"time_elapsed":238909,"internal_node_id":"0.0-19.55-1.55"},{"rt":581.4350000000559,"stimulus":"<p>Choose a box,</p>","button_pressed":2,"trial_type":"html-button-response","trial_index":136,"time_elapsed":239493,"internal_node_id":"0.0-19.56-0.56"},{"rate":0.48596811601873424,"trial_type":"html-keyboard-response","trial_index":137,"time_elapsed":239493,"internal_node_id":"0.0-19.56-1.56"},{"rt":null,"stimulus":"<div style=\"background-color:#6dce98\"><h1 style=\"background-color:MediumSeaGreen\" >You won a prize! Well done!</h1><div style=\"background-color:#6dce98\"><h1 style=\"background-color:MediumSeaGreen\" >Only 0 left to go!</h1><img id=\"box\" src=\"img/prizes/duck.png\"></img><img id=\"box\" src=\"img/empty/purpleopenbox.png\"></img></div>","key_press":null,"trial_type":"html-keyboard-response","trial_index":137,"time_elapsed":240997,"internal_node_id":"0.0-19.56-1.56"},{"rt":9884.08999999956,"responses":"{\"Q0\":\"Nothing\",\"Q1\":\"None\"}","trial_type":"survey-text","trial_index":138,"time_elapsed":250889,"internal_node_id":"0.0-20.0"}]