[{"view_history":"[{\"page_index\":0,\"viewing_time\":37623.0949999881},{\"page_index\":1,\"viewing_time\":12551.425000012387},{\"page_index\":2,\"viewing_time\":27119.254999997793},{\"page_index\":3,\"viewing_time\":20008.364999986952},{\"page_index\":4,\"viewing_time\":17577.075000008335},{\"page_index\":5,\"viewing_time\":36733.854999998584}]","rt":151613.9850000036,"trial_type":"instructions","trial_index":0,"time_elapsed":151616,"internal_node_id":"0.0-0.0"},{"rt":10814.385000005132,"responses":"{\"Q0\":\"Yes\",\"Q1\":\"Yes\",\"Q2\":\"Yes\"}","question_order":"[0,1,2]","trial_type":"survey-multi-choice","trial_index":1,"time_elapsed":162434,"internal_node_id":"0.0-1.0-0.0"},{"rt":16195.544999995036,"responses":"{\"Q0\":\"Yes\",\"Q1\":\"Yes\",\"Q2\":\"Yes\"}","question_order":"[0,1,2]","trial_type":"survey-multi-choice","trial_index":2,"time_elapsed":178633,"internal_node_id":"0.0-2.0-0.0"},{"rt":14059.629999974277,"responses":"{\"Q0\":\"5e52af31a0002e2c6056b13f\"}","trial_type":"survey-text","trial_index":3,"time_elapsed":192696,"internal_node_id":"0.0-3.0"},{"rt":6879.099999991013,"responses":"{\"Q0\":\"Male\",\"Q1\":\"55-64\"}","question_order":"[0,1]","trial_type":"survey-multi-choice","trial_index":4,"time_elapsed":199577,"internal_node_id":"0.0-4.0"},{"rt":5500.759999995353,"responses":"{\"Q0\":\"\"}","trial_type":"survey-text","trial_index":5,"time_elapsed":205080,"internal_node_id":"0.0-5.0"},{"view_history":"[{\"page_index\":0,\"viewing_time\":6847.450000001118}]","rt":6847.734999988461,"trial_type":"instructions","trial_index":6,"time_elapsed":211928,"internal_node_id":"0.0-6.0"},{"rt":37349.39500002656,"responses":"{\"Interested\":3,\"Distressed\":2,\"Excited\":2,\"Upset\":0}","question_order":"[0,1,2,3]","trial_type":"survey-likert","trial_index":7,"time_elapsed":249280,"internal_node_id":"0.0-7.0"},{"rt":43084.579999995185,"responses":"{\"Strong\":2,\"Guilty\":1,\"Scared\":1,\"Hostile\":0}","question_order":"[0,1,2,3]","trial_type":"survey-likert","trial_index":8,"time_elapsed":292367,"internal_node_id":"0.0-8.0"},{"rt":87507.29999999749,"responses":"{\"Enthusiastic\":3,\"Proud\":3,\"Irritable\":2,\"Alert\":2}","question_order":"[0,1,2,3]","trial_type":"survey-likert","trial_index":9,"time_elapsed":379877,"internal_node_id":"0.0-9.0"},{"rt":87381.53499999316,"responses":"{\"Ashamed\":2,\"Inspired\":2,\"Nervous\":3,\"Determined\":3}","question_order":"[0,1,2,3]","trial_type":"survey-likert","trial_index":10,"time_elapsed":467262,"internal_node_id":"0.0-10.0"},{"rt":75347.86500001792,"responses":"{\"Attentive\":2,\"Jittery\":1,\"Active\":2,\"Afraid\":1}","question_order":"[0,1,2,3]","trial_type":"survey-likert","trial_index":11,"time_elapsed":542612,"internal_node_id":"0.0-11.0"},{"rt":22918.969999998808,"responses":"{\"Q0\":0,\"Q1\":1,\"Q2\":1,\"Q3\":1}","question_order":"[0,1,2,3]","trial_type":"survey-likert","trial_index":12,"time_elapsed":565534,"internal_node_id":"0.0-12.0"},{"rt":22011.839999991935,"responses":"{\"Q0\":0,\"Q1\":0,\"Q2\":0,\"Q3\":0}","question_order":"[0,1,2,3]","trial_type":"survey-likert","trial_index":13,"time_elapsed":587548,"internal_node_id":"0.0-13.0"},{"rt":38165.19500000868,"responses":"{\"Q0\":0,\"Q1\":1,\"Q2\":1,\"Q3\":0}","question_order":"[0,1,2,3]","trial_type":"survey-likert","trial_index":14,"time_elapsed":625716,"internal_node_id":"0.0-14.0"},{"rt":26629.349999973783,"responses":"{\"Q0\":0,\"Q1\":1,\"Q2\":0}","question_order":"[0,1,2]","trial_type":"survey-likert","trial_index":15,"time_elapsed":652348,"internal_node_id":"0.0-15.0"},{"view_history":"[{\"page_index\":0,\"viewing_time\":6216.914999997243},{\"page_index\":1,\"viewing_time\":21839.445000019623},{\"page_index\":2,\"viewing_time\":10505.269999994198}]","rt":38561.93500000518,"trial_type":"instructions","trial_index":16,"time_elapsed":690915,"internal_node_id":"0.0-16.0"},{"rt":2092.9049999976996,"stimulus":"<p>Choose a box,</p>","button_pressed":1,"trial_type":"html-button-response","trial_index":17,"time_elapsed":693011,"internal_node_id":"0.0-17.0-0.0"},{"rate":0.46138877529307104,"trial_type":"html-keyboard-response","trial_index":18,"time_elapsed":693011,"internal_node_id":"0.0-17.0-1.0"},{"rt":null,"stimulus":"<div style=\"background-color:#ff7157\"><h1 style=\"background-color:Tomato\">Bad luck! There was no prize in the box!</h1><h1 style=\"background-color:Tomato\">Remember, you need to keep going until you have 20 prizes!</h1><img id=\"box\" src=\"img/sad/greenopenboxsadthumb.png\"></img></div>","key_press":null,"trial_type":"html-keyboard-response","trial_index":18,"time_elapsed":694527,"internal_node_id":"0.0-17.0-1.0"},{"rt":4865.4699999897275,"stimulus":"<p>Choose a box,</p>","button_pressed":3,"trial_type":"html-button-response","trial_index":19,"time_elapsed":699394,"internal_node_id":"0.0-17.0-0.1"},{"rate":0.1590981011412586,"trial_type":"html-keyboard-response","trial_index":20,"time_elapsed":699395,"internal_node_id":"0.0-17.0-1.1"},{"rt":null,"stimulus":"<div style=\"background-color:#ff7157\"><h1 style=\"background-color:Tomato\">Bad luck! There was no prize in the box!</h1><h1 style=\"background-color:Tomato\">Remember, you need to keep going until you have 20 prizes!</h1><img id=\"box\" src=\"img/sad/redopenboxsadthumb.png\"></img></div>","key_press":null,"trial_type":"html-keyboard-response","trial_index":20,"time_elapsed":700909,"internal_node_id":"0.0-17.0-1.1"},{"rt":2330.405000015162,"stimulus":"<p>Choose a box,</p>","button_pressed":1,"trial_type":"html-button-response","trial_index":21,"time_elapsed":703243,"internal_node_id":"0.0-17.0-0.2"},{"rate":0.46138877529307104,"trial_type":"html-keyboard-response","trial_index":22,"time_elapsed":703243,"internal_node_id":"0.0-17.0-1.2"},{"rt":null,"stimulus":"<div style=\"background-color:#ff7157\"><h1 style=\"background-color:Tomato\">Bad luck! There was no prize in the box!</h1><h1 style=\"background-color:Tomato\">Remember, you need to keep going until you have 20 prizes!</h1><img id=\"box\" src=\"img/sad/greenopenboxsadthumb.png\"></img></div>","key_press":null,"trial_type":"html-keyboard-response","trial_index":22,"time_elapsed":704748,"internal_node_id":"0.0-17.0-1.2"},{"view_history":"[{\"page_index\":0,\"viewing_time\":3122.8250000276603}]","rt":3123.0800000193994,"trial_type":"instructions","trial_index":23,"time_elapsed":707874,"internal_node_id":"0.0-18.0"},{"rt":13190.614999999525,"stimulus":"<p>Choose a box,</p>","button_pressed":0,"trial_type":"html-button-response","trial_index":24,"time_elapsed":721066,"internal_node_id":"0.0-19.0-0.0"},{"rate":0.3489578723425996,"trial_type":"html-keyboard-response","trial_index":25,"time_elapsed":721066,"internal_node_id":"0.0-19.0-1.0"},{"rt":null,"stimulus":"<div style=\"background-color:#ff7157\"><h1 style=\"background-color:Tomato\">Bad luck! There was no prize in the box!</h1><h1 style=\"background-color:Tomato\">Remember, you need to keep going until you have 20 prizes!</h1><img id=\"box\" src=\"img/sad/blueopenboxsadthumb.png\"></img></div>","key_press":null,"trial_type":"html-keyboard-response","trial_index":25,"time_elapsed":722574,"internal_node_id":"0.0-19.0-1.0"},{"rt":2048.6649999802466,"stimulus":"<p>Choose a box,</p>","button_pressed":2,"trial_type":"html-button-response","trial_index":26,"time_elapsed":724626,"internal_node_id":"0.0-19.1-0.1"},{"rate":0.5620127792322015,"trial_type":"html-keyboard-response","trial_index":27,"time_elapsed":724626,"internal_node_id":"0.0-19.1-1.1"},{"rt":null,"stimulus":"<div style=\"background-color:#6dce98\"><h1 style=\"background-color:MediumSeaGreen\" >You won a prize! Well done!</h1><div style=\"background-color:#6dce98\"><h1 style=\"background-color:MediumSeaGreen\" >Only 19 left to go!</h1><img id=\"box\" src=\"img/prizes/yoyo.png\"></img><img id=\"box\" src=\"img/empty/purpleopenbox.png\"></img></div>","key_press":null,"trial_type":"html-keyboard-response","trial_index":27,"time_elapsed":726141,"internal_node_id":"0.0-19.1-1.1"},{"rt":3250.3800000122283,"stimulus":"<p>Choose a box,</p>","button_pressed":3,"trial_type":"html-button-response","trial_index":28,"time_elapsed":729394,"internal_node_id":"0.0-19.2-0.2"},{"rate":0.08814954785722445,"trial_type":"html-keyboard-response","trial_index":29,"time_elapsed":729395,"internal_node_id":"0.0-19.2-1.2"},{"rt":null,"stimulus":"<div style=\"background-color:#ff7157\"><h1 style=\"background-color:Tomato\">Bad luck! There was no prize in the box!</h1><h1 style=\"background-color:Tomato\">Remember, you need to keep going until you have 20 prizes!</h1><img id=\"box\" src=\"img/sad/redopenboxsadthumb.png\"></img></div>","key_press":null,"trial_type":"html-keyboard-response","trial_index":29,"time_elapsed":730907,"internal_node_id":"0.0-19.2-1.2"},{"rt":939.5850000146311,"stimulus":"<p>Choose a box,</p>","button_pressed":2,"trial_type":"html-button-response","trial_index":30,"time_elapsed":731850,"internal_node_id":"0.0-19.3-0.3"},{"rate":0.5620127792322015,"trial_type":"html-keyboard-response","trial_index":31,"time_elapsed":731850,"internal_node_id":"0.0-19.3-1.3"},{"rt":null,"stimulus":"<div style=\"background-color:#ff7157\"><h1 style=\"background-color:Tomato\">Bad luck! There was no prize in the box!</h1><h1 style=\"background-color:Tomato\">Remember, you need to keep going until you have 20 prizes!</h1><img id=\"box\" src=\"img/sad/purpleopenboxsadthumb.png\"></img></div>","key_press":null,"trial_type":"html-keyboard-response","trial_index":31,"time_elapsed":733366,"internal_node_id":"0.0-19.3-1.3"},{"rt":1465.9699999901932,"stimulus":"<p>Choose a box,</p>","button_pressed":0,"trial_type":"html-button-response","trial_index":32,"time_elapsed":734834,"internal_node_id":"0.0-19.4-0.4"},{"rate":0.3489578723425996,"trial_type":"html-keyboard-response","trial_index":33,"time_elapsed":734834,"internal_node_id":"0.0-19.4-1.4"},{"rt":null,"stimulus":"<div style=\"background-color:#ff7157\"><h1 style=\"background-color:Tomato\">Bad luck! There was no prize in the box!</h1><h1 style=\"background-color:Tomato\">Remember, you need to keep going until you have 20 prizes!</h1><img id=\"box\" src=\"img/sad/blueopenboxsadthumb.png\"></img></div>","key_press":null,"trial_type":"html-keyboard-response","trial_index":33,"time_elapsed":736347,"internal_node_id":"0.0-19.4-1.4"},{"rt":1541.3700000208337,"stimulus":"<p>Choose a box,</p>","button_pressed":1,"trial_type":"html-button-response","trial_index":34,"time_elapsed":737890,"internal_node_id":"0.0-19.5-0.5"},{"rate":0.21717580717990187,"trial_type":"html-keyboard-response","trial_index":35,"time_elapsed":737890,"internal_node_id":"0.0-19.5-1.5"},{"rt":null,"stimulus":"<div style=\"background-color:#6dce98\"><h1 style=\"background-color:MediumSeaGreen\" >You won a prize! Well done!</h1><div style=\"background-color:#6dce98\"><h1 style=\"background-color:MediumSeaGreen\" >Only 18 left to go!</h1><img id=\"box\" src=\"img/prizes/lolipop.png\"></img><img id=\"box\" src=\"img/empty/greenopenbox.png\"></img></div>","key_press":null,"trial_type":"html-keyboard-response","trial_index":35,"time_elapsed":739399,"internal_node_id":"0.0-19.5-1.5"},{"rt":2169.7799999965355,"stimulus":"<p>Choose a box,</p>","button_pressed":0,"trial_type":"html-button-response","trial_index":36,"time_elapsed":741570,"internal_node_id":"0.0-19.6-0.6"},{"rate":0.3489578723425996,"trial_type":"html-keyboard-response","trial_index":37,"time_elapsed":741570,"internal_node_id":"0.0-19.6-1.6"},{"rt":null,"stimulus":"<div style=\"background-color:#6dce98\"><h1 style=\"background-color:MediumSeaGreen\" >You won a prize! Well done!</h1><div style=\"background-color:#6dce98\"><h1 style=\"background-color:MediumSeaGreen\" >Only 17 left to go!</h1><img id=\"box\" src=\"img/prizes/flowers.png\"></img><img id=\"box\" src=\"img/empty/blueopenbox.png\"></img></div>","key_press":null,"trial_type":"html-keyboard-response","trial_index":37,"time_elapsed":743082,"internal_node_id":"0.0-19.6-1.6"},{"rt":1549.044999992475,"stimulus":"<p>Choose a box,</p>","button_pressed":3,"trial_type":"html-button-response","trial_index":38,"time_elapsed":744634,"internal_node_id":"0.0-19.7-0.7"},{"rate":0.08814954785722445,"trial_type":"html-keyboard-response","trial_index":39,"time_elapsed":744634,"internal_node_id":"0.0-19.7-1.7"},{"rt":null,"stimulus":"<div style=\"background-color:#ff7157\"><h1 style=\"background-color:Tomato\">Bad luck! There was no prize in the box!</h1><h1 style=\"background-color:Tomato\">Remember, you need to keep going until you have 20 prizes!</h1><img id=\"box\" src=\"img/sad/redopenboxsadthumb.png\"></img></div>","key_press":null,"trial_type":"html-keyboard-response","trial_index":39,"time_elapsed":746137,"internal_node_id":"0.0-19.7-1.7"},{"rt":2821.9650000100955,"stimulus":"<p>Choose a box,</p>","button_pressed":0,"trial_type":"html-button-response","trial_index":40,"time_elapsed":748962,"internal_node_id":"0.0-19.8-0.8"},{"rate":0.3489578723425996,"trial_type":"html-keyboard-response","trial_index":41,"time_elapsed":748962,"internal_node_id":"0.0-19.8-1.8"},{"rt":null,"stimulus":"<div style=\"background-color:#ff7157\"><h1 style=\"background-color:Tomato\">Bad luck! There was no prize in the box!</h1><h1 style=\"background-color:Tomato\">Remember, you need to keep going until you have 20 prizes!</h1><img id=\"box\" src=\"img/sad/blueopenboxsadthumb.png\"></img></div>","key_press":null,"trial_type":"html-keyboard-response","trial_index":41,"time_elapsed":750465,"internal_node_id":"0.0-19.8-1.8"},{"rt":974.8049999761861,"stimulus":"<p>Choose a box,</p>","button_pressed":3,"trial_type":"html-button-response","trial_index":42,"time_elapsed":751442,"internal_node_id":"0.0-19.9-0.9"},{"rate":0.08814954785722445,"trial_type":"html-keyboard-response","trial_index":43,"time_elapsed":751442,"internal_node_id":"0.0-19.9-1.9"},{"rt":null,"stimulus":"<div style=\"background-color:#ff7157\"><h1 style=\"background-color:Tomato\">Bad luck! There was no prize in the box!</h1><h1 style=\"background-color:Tomato\">Remember, you need to keep going until you have 20 prizes!</h1><img id=\"box\" src=\"img/sad/redopenboxsadthumb.png\"></img></div>","key_press":null,"trial_type":"html-keyboard-response","trial_index":43,"time_elapsed":752953,"internal_node_id":"0.0-19.9-1.9"},{"rt":1022.5999999966007,"stimulus":"<p>Choose a box,</p>","button_pressed":2,"trial_type":"html-button-response","trial_index":44,"time_elapsed":753977,"internal_node_id":"0.0-19.10-0.10"},{"rate":0.5620127792322015,"trial_type":"html-keyboard-response","trial_index":45,"time_elapsed":753978,"internal_node_id":"0.0-19.10-1.10"},{"rt":null,"stimulus":"<div style=\"background-color:#ff7157\"><h1 style=\"background-color:Tomato\">Bad luck! There was no prize in the box!</h1><h1 style=\"background-color:Tomato\">Remember, you need to keep going until you have 20 prizes!</h1><img id=\"box\" src=\"img/sad/purpleopenboxsadthumb.png\"></img></div>","key_press":null,"trial_type":"html-keyboard-response","trial_index":45,"time_elapsed":755483,"internal_node_id":"0.0-19.10-1.10"},{"rt":1028.8500000024214,"stimulus":"<p>Choose a box,</p>","button_pressed":2,"trial_type":"html-button-response","trial_index":46,"time_elapsed":756514,"internal_node_id":"0.0-19.11-0.11"},{"rate":0.5620127792322015,"trial_type":"html-keyboard-response","trial_index":47,"time_elapsed":756514,"internal_node_id":"0.0-19.11-1.11"},{"rt":null,"stimulus":"<div style=\"background-color:#ff7157\"><h1 style=\"background-color:Tomato\">Bad luck! There was no prize in the box!</h1><h1 style=\"background-color:Tomato\">Remember, you need to keep going until you have 20 prizes!</h1><img id=\"box\" src=\"img/sad/purpleopenboxsadthumb.png\"></img></div>","key_press":null,"trial_type":"html-keyboard-response","trial_index":47,"time_elapsed":758029,"internal_node_id":"0.0-19.11-1.11"},{"rt":818.4600000095088,"stimulus":"<p>Choose a box,</p>","button_pressed":2,"trial_type":"html-button-response","trial_index":48,"time_elapsed":758849,"internal_node_id":"0.0-19.12-0.12"},{"rate":0.5620127792322015,"trial_type":"html-keyboard-response","trial_index":49,"time_elapsed":758849,"internal_node_id":"0.0-19.12-1.12"},{"rt":null,"stimulus":"<div style=\"background-color:#6dce98\"><h1 style=\"background-color:MediumSeaGreen\" >You won a prize! Well done!</h1><div style=\"background-color:#6dce98\"><h1 style=\"background-color:MediumSeaGreen\" >Only 16 left to go!</h1><img id=\"box\" src=\"img/prizes/duck.png\"></img><img id=\"box\" src=\"img/empty/purpleopenbox.png\"></img></div>","key_press":null,"trial_type":"html-keyboard-response","trial_index":49,"time_elapsed":760365,"internal_node_id":"0.0-19.12-1.12"},{"rt":1314.8599999840371,"stimulus":"<p>Choose a box,</p>","button_pressed":2,"trial_type":"html-button-response","trial_index":50,"time_elapsed":761681,"internal_node_id":"0.0-19.13-0.13"},{"rate":0.5620127792322015,"trial_type":"html-keyboard-response","trial_index":51,"time_elapsed":761681,"internal_node_id":"0.0-19.13-1.13"},{"rt":null,"stimulus":"<div style=\"background-color:#ff7157\"><h1 style=\"background-color:Tomato\">Bad luck! There was no prize in the box!</h1><h1 style=\"background-color:Tomato\">Remember, you need to keep going until you have 20 prizes!</h1><img id=\"box\" src=\"img/sad/purpleopenboxsadthumb.png\"></img></div>","key_press":null,"trial_type":"html-keyboard-response","trial_index":51,"time_elapsed":763194,"internal_node_id":"0.0-19.13-1.13"},{"rt":1181.3550000078976,"stimulus":"<p>Choose a box,</p>","button_pressed":2,"trial_type":"html-button-response","trial_index":52,"time_elapsed":764377,"internal_node_id":"0.0-19.14-0.14"},{"rate":0.5620127792322015,"trial_type":"html-keyboard-response","trial_index":53,"time_elapsed":764377,"internal_node_id":"0.0-19.14-1.14"},{"rt":null,"stimulus":"<div style=\"background-color:#ff7157\"><h1 style=\"background-color:Tomato\">Bad luck! There was no prize in the box!</h1><h1 style=\"background-color:Tomato\">Remember, you need to keep going until you have 20 prizes!</h1><img id=\"box\" src=\"img/sad/purpleopenboxsadthumb.png\"></img></div>","key_press":null,"trial_type":"html-keyboard-response","trial_index":53,"time_elapsed":765879,"internal_node_id":"0.0-19.14-1.14"},{"rt":776.224999979604,"stimulus":"<p>Choose a box,</p>","button_pressed":2,"trial_type":"html-button-response","trial_index":54,"time_elapsed":766657,"internal_node_id":"0.0-19.15-0.15"},{"rate":0.5620127792322015,"trial_type":"html-keyboard-response","trial_index":55,"time_elapsed":766657,"internal_node_id":"0.0-19.15-1.15"},{"rt":null,"stimulus":"<div style=\"background-color:#6dce98\"><h1 style=\"background-color:MediumSeaGreen\" >You won a prize! Well done!</h1><div style=\"background-color:#6dce98\"><h1 style=\"background-color:MediumSeaGreen\" >Only 15 left to go!</h1><img id=\"box\" src=\"img/prizes/coins.png\"></img><img id=\"box\" src=\"img/empty/purpleopenbox.png\"></img></div>","key_press":null,"trial_type":"html-keyboard-response","trial_index":55,"time_elapsed":768161,"internal_node_id":"0.0-19.15-1.15"},{"rt":1349.5100000000093,"stimulus":"<p>Choose a box,</p>","button_pressed":3,"trial_type":"html-button-response","trial_index":56,"time_elapsed":769513,"internal_node_id":"0.0-19.16-0.16"},{"rate":0.08814954785722445,"trial_type":"html-keyboard-response","trial_index":57,"time_elapsed":769514,"internal_node_id":"0.0-19.16-1.16"},{"rt":null,"stimulus":"<div style=\"background-color:#ff7157\"><h1 style=\"background-color:Tomato\">Bad luck! There was no prize in the box!</h1><h1 style=\"background-color:Tomato\">Remember, you need to keep going until you have 20 prizes!</h1><img id=\"box\" src=\"img/sad/redopenboxsadthumb.png\"></img></div>","key_press":null,"trial_type":"html-keyboard-response","trial_index":57,"time_elapsed":771025,"internal_node_id":"0.0-19.16-1.16"},{"rt":614.5850000029895,"stimulus":"<p>Choose a box,</p>","button_pressed":3,"trial_type":"html-button-response","trial_index":58,"time_elapsed":771642,"internal_node_id":"0.0-19.17-0.17"},{"rate":0.08814954785722445,"trial_type":"html-keyboard-response","trial_index":59,"time_elapsed":771642,"internal_node_id":"0.0-19.17-1.17"},{"rt":null,"stimulus":"<div style=\"background-color:#ff7157\"><h1 style=\"background-color:Tomato\">Bad luck! There was no prize in the box!</h1><h1 style=\"background-color:Tomato\">Remember, you need to keep going until you have 20 prizes!</h1><img id=\"box\" src=\"img/sad/redopenboxsadthumb.png\"></img></div>","key_press":null,"trial_type":"html-keyboard-response","trial_index":59,"time_elapsed":773158,"internal_node_id":"0.0-19.17-1.17"},{"rt":937.3049999994691,"stimulus":"<p>Choose a box,</p>","button_pressed":3,"trial_type":"html-button-response","trial_index":60,"time_elapsed":774097,"internal_node_id":"0.0-19.18-0.18"},{"rate":0.08814954785722445,"trial_type":"html-keyboard-response","trial_index":61,"time_elapsed":774097,"internal_node_id":"0.0-19.18-1.18"},{"rt":null,"stimulus":"<div style=\"background-color:#ff7157\"><h1 style=\"background-color:Tomato\">Bad luck! There was no prize in the box!</h1><h1 style=\"background-color:Tomato\">Remember, you need to keep going until you have 20 prizes!</h1><img id=\"box\" src=\"img/sad/redopenboxsadthumb.png\"></img></div>","key_press":null,"trial_type":"html-keyboard-response","trial_index":61,"time_elapsed":775610,"internal_node_id":"0.0-19.18-1.18"},{"rt":940.0750000204425,"stimulus":"<p>Choose a box,</p>","button_pressed":3,"trial_type":"html-button-response","trial_index":62,"time_elapsed":776554,"internal_node_id":"0.0-19.19-0.19"},{"rate":0.08814954785722445,"trial_type":"html-keyboard-response","trial_index":63,"time_elapsed":776554,"internal_node_id":"0.0-19.19-1.19"},{"rt":null,"stimulus":"<div style=\"background-color:#ff7157\"><h1 style=\"background-color:Tomato\">Bad luck! There was no prize in the box!</h1><h1 style=\"background-color:Tomato\">Remember, you need to keep going until you have 20 prizes!</h1><img id=\"box\" src=\"img/sad/redopenboxsadthumb.png\"></img></div>","key_press":null,"trial_type":"html-keyboard-response","trial_index":63,"time_elapsed":778071,"internal_node_id":"0.0-19.19-1.19"},{"rt":735.8550000062678,"stimulus":"<p>Choose a box,</p>","button_pressed":3,"trial_type":"html-button-response","trial_index":64,"time_elapsed":778810,"internal_node_id":"0.0-19.20-0.20"},{"rate":0.08814954785722445,"trial_type":"html-keyboard-response","trial_index":65,"time_elapsed":778810,"internal_node_id":"0.0-19.20-1.20"},{"rt":null,"stimulus":"<div style=\"background-color:#ff7157\"><h1 style=\"background-color:Tomato\">Bad luck! There was no prize in the box!</h1><h1 style=\"background-color:Tomato\">Remember, you need to keep going until you have 20 prizes!</h1><img id=\"box\" src=\"img/sad/redopenboxsadthumb.png\"></img></div>","key_press":null,"trial_type":"html-keyboard-response","trial_index":65,"time_elapsed":780321,"internal_node_id":"0.0-19.20-1.20"},{"rt":1438.0750000127591,"stimulus":"<p>Choose a box,</p>","button_pressed":1,"trial_type":"html-button-response","trial_index":66,"time_elapsed":781761,"internal_node_id":"0.0-19.21-0.21"},{"rate":0.21717580717990187,"trial_type":"html-keyboard-response","trial_index":67,"time_elapsed":781761,"internal_node_id":"0.0-19.21-1.21"},{"rt":null,"stimulus":"<div style=\"background-color:#ff7157\"><h1 style=\"background-color:Tomato\">Bad luck! There was no prize in the box!</h1><h1 style=\"background-color:Tomato\">Remember, you need to keep going until you have 20 prizes!</h1><img id=\"box\" src=\"img/sad/greenopenboxsadthumb.png\"></img></div>","key_press":null,"trial_type":"html-keyboard-response","trial_index":67,"time_elapsed":783266,"internal_node_id":"0.0-19.21-1.21"},{"rt":958.0249999999069,"stimulus":"<p>Choose a box,</p>","button_pressed":1,"trial_type":"html-button-response","trial_index":68,"time_elapsed":784227,"internal_node_id":"0.0-19.22-0.22"},{"rate":0.21717580717990187,"trial_type":"html-keyboard-response","trial_index":69,"time_elapsed":784227,"internal_node_id":"0.0-19.22-1.22"},{"rt":null,"stimulus":"<div style=\"background-color:#ff7157\"><h1 style=\"background-color:Tomato\">Bad luck! There was no prize in the box!</h1><h1 style=\"background-color:Tomato\">Remember, you need to keep going until you have 20 prizes!</h1><img id=\"box\" src=\"img/sad/greenopenboxsadthumb.png\"></img></div>","key_press":null,"trial_type":"html-keyboard-response","trial_index":69,"time_elapsed":785737,"internal_node_id":"0.0-19.22-1.22"},{"rt":836.9599999859929,"stimulus":"<p>Choose a box,</p>","button_pressed":1,"trial_type":"html-button-response","trial_index":70,"time_elapsed":786577,"internal_node_id":"0.0-19.23-0.23"},{"rate":0.21717580717990187,"trial_type":"html-keyboard-response","trial_index":71,"time_elapsed":786577,"internal_node_id":"0.0-19.23-1.23"},{"rt":null,"stimulus":"<div style=\"background-color:#ff7157\"><h1 style=\"background-color:Tomato\">Bad luck! There was no prize in the box!</h1><h1 style=\"background-color:Tomato\">Remember, you need to keep going until you have 20 prizes!</h1><img id=\"box\" src=\"img/sad/greenopenboxsadthumb.png\"></img></div>","key_press":null,"trial_type":"html-keyboard-response","trial_index":71,"time_elapsed":788092,"internal_node_id":"0.0-19.23-1.23"},{"rt":731.6450000216719,"stimulus":"<p>Choose a box,</p>","button_pressed":1,"trial_type":"html-button-response","trial_index":72,"time_elapsed":788825,"internal_node_id":"0.0-19.24-0.24"},{"rate":0.21717580717990187,"trial_type":"html-keyboard-response","trial_index":73,"time_elapsed":788825,"internal_node_id":"0.0-19.24-1.24"},{"rt":null,"stimulus":"<div style=\"background-color:#ff7157\"><h1 style=\"background-color:Tomato\">Bad luck! There was no prize in the box!</h1><h1 style=\"background-color:Tomato\">Remember, you need to keep going until you have 20 prizes!</h1><img id=\"box\" src=\"img/sad/greenopenboxsadthumb.png\"></img></div>","key_press":null,"trial_type":"html-keyboard-response","trial_index":73,"time_elapsed":790332,"internal_node_id":"0.0-19.24-1.24"},{"rt":2242.304999992484,"stimulus":"<p>Choose a box,</p>","button_pressed":1,"trial_type":"html-button-response","trial_index":74,"time_elapsed":792577,"internal_node_id":"0.0-19.25-0.25"},{"rate":0.21717580717990187,"trial_type":"html-keyboard-response","trial_index":75,"time_elapsed":792578,"internal_node_id":"0.0-19.25-1.25"},{"rt":null,"stimulus":"<div style=\"background-color:#ff7157\"><h1 style=\"background-color:Tomato\">Bad luck! There was no prize in the box!</h1><h1 style=\"background-color:Tomato\">Remember, you need to keep going until you have 20 prizes!</h1><img id=\"box\" src=\"img/sad/greenopenboxsadthumb.png\"></img></div>","key_press":null,"trial_type":"html-keyboard-response","trial_index":75,"time_elapsed":794085,"internal_node_id":"0.0-19.25-1.25"},{"rt":305.2599999937229,"stimulus":"<p>Choose a box,</p>","button_pressed":1,"trial_type":"html-button-response","trial_index":76,"time_elapsed":794393,"internal_node_id":"0.0-19.26-0.26"},{"rate":0.21717580717990187,"trial_type":"html-keyboard-response","trial_index":77,"time_elapsed":794393,"internal_node_id":"0.0-19.26-1.26"},{"rt":null,"stimulus":"<div style=\"background-color:#ff7157\"><h1 style=\"background-color:Tomato\">Bad luck! There was no prize in the box!</h1><h1 style=\"background-color:Tomato\">Remember, you need to keep going until you have 20 prizes!</h1><img id=\"box\" src=\"img/sad/greenopenboxsadthumb.png\"></img></div>","key_press":null,"trial_type":"html-keyboard-response","trial_index":77,"time_elapsed":795902,"internal_node_id":"0.0-19.26-1.26"},{"rt":1449.609999981476,"stimulus":"<p>Choose a box,</p>","button_pressed":0,"trial_type":"html-button-response","trial_index":78,"time_elapsed":797353,"internal_node_id":"0.0-19.27-0.27"},{"rate":0.3489578723425996,"trial_type":"html-keyboard-response","trial_index":79,"time_elapsed":797354,"internal_node_id":"0.0-19.27-1.27"},{"rt":null,"stimulus":"<div style=\"background-color:#6dce98\"><h1 style=\"background-color:MediumSeaGreen\" >You won a prize! Well done!</h1><div style=\"background-color:#6dce98\"><h1 style=\"background-color:MediumSeaGreen\" >Only 14 left to go!</h1><img id=\"box\" src=\"img/prizes/flowers.png\"></img><img id=\"box\" src=\"img/empty/blueopenbox.png\"></img></div>","key_press":null,"trial_type":"html-keyboard-response","trial_index":79,"time_elapsed":798859,"internal_node_id":"0.0-19.27-1.27"},{"rt":611.0749999934342,"stimulus":"<p>Choose a box,</p>","button_pressed":0,"trial_type":"html-button-response","trial_index":80,"time_elapsed":799473,"internal_node_id":"0.0-19.28-0.28"},{"rate":0.3489578723425996,"trial_type":"html-keyboard-response","trial_index":81,"time_elapsed":799473,"internal_node_id":"0.0-19.28-1.28"},{"rt":null,"stimulus":"<div style=\"background-color:#6dce98\"><h1 style=\"background-color:MediumSeaGreen\" >You won a prize! Well done!</h1><div style=\"background-color:#6dce98\"><h1 style=\"background-color:MediumSeaGreen\" >Only 13 left to go!</h1><img id=\"box\" src=\"img/prizes/beachball.png\"></img><img id=\"box\" src=\"img/empty/blueopenbox.png\"></img></div>","key_press":null,"trial_type":"html-keyboard-response","trial_index":81,"time_elapsed":800988,"internal_node_id":"0.0-19.28-1.28"},{"rt":938.6299999896437,"stimulus":"<p>Choose a box,</p>","button_pressed":0,"trial_type":"html-button-response","trial_index":82,"time_elapsed":801929,"internal_node_id":"0.0-19.29-0.29"},{"rate":0.3489578723425996,"trial_type":"html-keyboard-response","trial_index":83,"time_elapsed":801929,"internal_node_id":"0.0-19.29-1.29"},{"rt":null,"stimulus":"<div style=\"background-color:#6dce98\"><h1 style=\"background-color:MediumSeaGreen\" >You won a prize! Well done!</h1><div style=\"background-color:#6dce98\"><h1 style=\"background-color:MediumSeaGreen\" >Only 12 left to go!</h1><img id=\"box\" src=\"img/prizes/bear.png\"></img><img id=\"box\" src=\"img/empty/blueopenbox.png\"></img></div>","key_press":null,"trial_type":"html-keyboard-response","trial_index":83,"time_elapsed":803445,"internal_node_id":"0.0-19.29-1.29"},{"rt":737.9199999850243,"stimulus":"<p>Choose a box,</p>","button_pressed":0,"trial_type":"html-button-response","trial_index":84,"time_elapsed":804185,"internal_node_id":"0.0-19.30-0.30"},{"rate":0.3489578723425996,"trial_type":"html-keyboard-response","trial_index":85,"time_elapsed":804185,"internal_node_id":"0.0-19.30-1.30"},{"rt":null,"stimulus":"<div style=\"background-color:#ff7157\"><h1 style=\"background-color:Tomato\">Bad luck! There was no prize in the box!</h1><h1 style=\"background-color:Tomato\">Remember, you need to keep going until you have 20 prizes!</h1><img id=\"box\" src=\"img/sad/blueopenboxsadthumb.png\"></img></div>","key_press":null,"trial_type":"html-keyboard-response","trial_index":85,"time_elapsed":805698,"internal_node_id":"0.0-19.30-1.30"},{"rt":1107.4249999946915,"stimulus":"<p>Choose a box,</p>","button_pressed":1,"trial_type":"html-button-response","trial_index":86,"time_elapsed":806809,"internal_node_id":"0.0-19.31-0.31"},{"rate":0.21717580717990187,"trial_type":"html-keyboard-response","trial_index":87,"time_elapsed":806809,"internal_node_id":"0.0-19.31-1.31"},{"rt":null,"stimulus":"<div style=\"background-color:#ff7157\"><h1 style=\"background-color:Tomato\">Bad luck! There was no prize in the box!</h1><h1 style=\"background-color:Tomato\">Remember, you need to keep going until you have 20 prizes!</h1><img id=\"box\" src=\"img/sad/greenopenboxsadthumb.png\"></img></div>","key_press":null,"trial_type":"html-keyboard-response","trial_index":87,"time_elapsed":808317,"internal_node_id":"0.0-19.31-1.31"},{"rt":1488.1599999789614,"stimulus":"<p>Choose a box,</p>","button_pressed":2,"trial_type":"html-button-response","trial_index":88,"time_elapsed":809808,"internal_node_id":"0.0-19.32-0.32"},{"rate":0.5620127792322015,"trial_type":"html-keyboard-response","trial_index":89,"time_elapsed":809809,"internal_node_id":"0.0-19.32-1.32"},{"rt":null,"stimulus":"<div style=\"background-color:#ff7157\"><h1 style=\"background-color:Tomato\">Bad luck! There was no prize in the box!</h1><h1 style=\"background-color:Tomato\">Remember, you need to keep going until you have 20 prizes!</h1><img id=\"box\" src=\"img/sad/purpleopenboxsadthumb.png\"></img></div>","key_press":null,"trial_type":"html-keyboard-response","trial_index":89,"time_elapsed":811317,"internal_node_id":"0.0-19.32-1.32"},{"rt":626.5999999886844,"stimulus":"<p>Choose a box,</p>","button_pressed":2,"trial_type":"html-button-response","trial_index":90,"time_elapsed":811945,"internal_node_id":"0.0-19.33-0.33"},{"rate":0.5620127792322015,"trial_type":"html-keyboard-response","trial_index":91,"time_elapsed":811945,"internal_node_id":"0.0-19.33-1.33"},{"rt":null,"stimulus":"<div style=\"background-color:#6dce98\"><h1 style=\"background-color:MediumSeaGreen\" >You won a prize! Well done!</h1><div style=\"background-color:#6dce98\"><h1 style=\"background-color:MediumSeaGreen\" >Only 11 left to go!</h1><img id=\"box\" src=\"img/prizes/coins.png\"></img><img id=\"box\" src=\"img/empty/purpleopenbox.png\"></img></div>","key_press":null,"trial_type":"html-keyboard-response","trial_index":91,"time_elapsed":813456,"internal_node_id":"0.0-19.33-1.33"},{"rt":566.4800000085961,"stimulus":"<p>Choose a box,</p>","button_pressed":2,"trial_type":"html-button-response","trial_index":92,"time_elapsed":814025,"internal_node_id":"0.0-19.34-0.34"},{"rate":0.5620127792322015,"trial_type":"html-keyboard-response","trial_index":93,"time_elapsed":814025,"internal_node_id":"0.0-19.34-1.34"},{"rt":null,"stimulus":"<div style=\"background-color:#ff7157\"><h1 style=\"background-color:Tomato\">Bad luck! There was no prize in the box!</h1><h1 style=\"background-color:Tomato\">Remember, you need to keep going until you have 20 prizes!</h1><img id=\"box\" src=\"img/sad/purpleopenboxsadthumb.png\"></img></div>","key_press":null,"trial_type":"html-keyboard-response","trial_index":93,"time_elapsed":815528,"internal_node_id":"0.0-19.34-1.34"},{"rt":1295.299999997951,"stimulus":"<p>Choose a box,</p>","button_pressed":2,"trial_type":"html-button-response","trial_index":94,"time_elapsed":816825,"internal_node_id":"0.0-19.35-0.35"},{"rate":0.5620127792322015,"trial_type":"html-keyboard-response","trial_index":95,"time_elapsed":816825,"internal_node_id":"0.0-19.35-1.35"},{"rt":null,"stimulus":"<div style=\"background-color:#ff7157\"><h1 style=\"background-color:Tomato\">Bad luck! There was no prize in the box!</h1><h1 style=\"background-color:Tomato\">Remember, you need to keep going until you have 20 prizes!</h1><img id=\"box\" src=\"img/sad/purpleopenboxsadthumb.png\"></img></div>","key_press":null,"trial_type":"html-keyboard-response","trial_index":95,"time_elapsed":818331,"internal_node_id":"0.0-19.35-1.35"},{"rt":820.095000002766,"stimulus":"<p>Choose a box,</p>","button_pressed":3,"trial_type":"html-button-response","trial_index":96,"time_elapsed":819153,"internal_node_id":"0.0-19.36-0.36"},{"rate":0.08814954785722445,"trial_type":"html-keyboard-response","trial_index":97,"time_elapsed":819153,"internal_node_id":"0.0-19.36-1.36"},{"rt":null,"stimulus":"<div style=\"background-color:#ff7157\"><h1 style=\"background-color:Tomato\">Bad luck! There was no prize in the box!</h1><h1 style=\"background-color:Tomato\">Remember, you need to keep going until you have 20 prizes!</h1><img id=\"box\" src=\"img/sad/redopenboxsadthumb.png\"></img></div>","key_press":null,"trial_type":"html-keyboard-response","trial_index":97,"time_elapsed":820667,"internal_node_id":"0.0-19.36-1.36"},{"rt":1194.3800000008196,"stimulus":"<p>Choose a box,</p>","button_pressed":1,"trial_type":"html-button-response","trial_index":98,"time_elapsed":821865,"internal_node_id":"0.0-19.37-0.37"},{"rate":0.21717580717990187,"trial_type":"html-keyboard-response","trial_index":99,"time_elapsed":821865,"internal_node_id":"0.0-19.37-1.37"},{"rt":null,"stimulus":"<div style=\"background-color:#ff7157\"><h1 style=\"background-color:Tomato\">Bad luck! There was no prize in the box!</h1><h1 style=\"background-color:Tomato\">Remember, you need to keep going until you have 20 prizes!</h1><img id=\"box\" src=\"img/sad/greenopenboxsadthumb.png\"></img></div>","key_press":null,"trial_type":"html-keyboard-response","trial_index":99,"time_elapsed":823373,"internal_node_id":"0.0-19.37-1.37"},{"rt":547.3300000012387,"stimulus":"<p>Choose a box,</p>","button_pressed":1,"trial_type":"html-button-response","trial_index":100,"time_elapsed":823923,"internal_node_id":"0.0-19.38-0.38"},{"rate":0.21717580717990187,"trial_type":"html-keyboard-response","trial_index":101,"time_elapsed":823923,"internal_node_id":"0.0-19.38-1.38"},{"rt":null,"stimulus":"<div style=\"background-color:#6dce98\"><h1 style=\"background-color:MediumSeaGreen\" >You won a prize! Well done!</h1><div style=\"background-color:#6dce98\"><h1 style=\"background-color:MediumSeaGreen\" >Only 10 left to go!</h1><img id=\"box\" src=\"img/prizes/flowers.png\"></img><img id=\"box\" src=\"img/empty/greenopenbox.png\"></img></div>","key_press":null,"trial_type":"html-keyboard-response","trial_index":101,"time_elapsed":825437,"internal_node_id":"0.0-19.38-1.38"},{"rt":874.5850000123028,"stimulus":"<p>Choose a box,</p>","button_pressed":1,"trial_type":"html-button-response","trial_index":102,"time_elapsed":826314,"internal_node_id":"0.0-19.39-0.39"},{"rate":0.21717580717990187,"trial_type":"html-keyboard-response","trial_index":103,"time_elapsed":826314,"internal_node_id":"0.0-19.39-1.39"},{"rt":null,"stimulus":"<div style=\"background-color:#ff7157\"><h1 style=\"background-color:Tomato\">Bad luck! There was no prize in the box!</h1><h1 style=\"background-color:Tomato\">Remember, you need to keep going until you have 20 prizes!</h1><img id=\"box\" src=\"img/sad/greenopenboxsadthumb.png\"></img></div>","key_press":null,"trial_type":"html-keyboard-response","trial_index":103,"time_elapsed":827827,"internal_node_id":"0.0-19.39-1.39"},{"rt":755.1049999892712,"stimulus":"<p>Choose a box,</p>","button_pressed":0,"trial_type":"html-button-response","trial_index":104,"time_elapsed":828585,"internal_node_id":"0.0-19.40-0.40"},{"rate":0.3489578723425996,"trial_type":"html-keyboard-response","trial_index":105,"time_elapsed":828585,"internal_node_id":"0.0-19.40-1.40"},{"rt":null,"stimulus":"<div style=\"background-color:#ff7157\"><h1 style=\"background-color:Tomato\">Bad luck! There was no prize in the box!</h1><h1 style=\"background-color:Tomato\">Remember, you need to keep going until you have 20 prizes!</h1><img id=\"box\" src=\"img/sad/blueopenboxsadthumb.png\"></img></div>","key_press":null,"trial_type":"html-keyboard-response","trial_index":105,"time_elapsed":830090,"internal_node_id":"0.0-19.40-1.40"},{"rt":699.8899999889545,"stimulus":"<p>Choose a box,</p>","button_pressed":0,"trial_type":"html-button-response","trial_index":106,"time_elapsed":830793,"internal_node_id":"0.0-19.41-0.41"},{"rate":0.3489578723425996,"trial_type":"html-keyboard-response","trial_index":107,"time_elapsed":830793,"internal_node_id":"0.0-19.41-1.41"},{"rt":null,"stimulus":"<div style=\"background-color:#ff7157\"><h1 style=\"background-color:Tomato\">Bad luck! There was no prize in the box!</h1><h1 style=\"background-color:Tomato\">Remember, you need to keep going until you have 20 prizes!</h1><img id=\"box\" src=\"img/sad/blueopenboxsadthumb.png\"></img></div>","key_press":null,"trial_type":"html-keyboard-response","trial_index":107,"time_elapsed":832309,"internal_node_id":"0.0-19.41-1.41"},{"rt":824.9099999957252,"stimulus":"<p>Choose a box,</p>","button_pressed":0,"trial_type":"html-button-response","trial_index":108,"time_elapsed":833137,"internal_node_id":"0.0-19.42-0.42"},{"rate":0.3489578723425996,"trial_type":"html-keyboard-response","trial_index":109,"time_elapsed":833137,"internal_node_id":"0.0-19.42-1.42"},{"rt":null,"stimulus":"<div style=\"background-color:#ff7157\"><h1 style=\"background-color:Tomato\">Bad luck! There was no prize in the box!</h1><h1 style=\"background-color:Tomato\">Remember, you need to keep going until you have 20 prizes!</h1><img id=\"box\" src=\"img/sad/blueopenboxsadthumb.png\"></img></div>","key_press":null,"trial_type":"html-keyboard-response","trial_index":109,"time_elapsed":834643,"internal_node_id":"0.0-19.42-1.42"},{"rt":769.109999993816,"stimulus":"<p>Choose a box,</p>","button_pressed":0,"trial_type":"html-button-response","trial_index":110,"time_elapsed":835416,"internal_node_id":"0.0-19.43-0.43"},{"rate":0.3489578723425996,"trial_type":"html-keyboard-response","trial_index":111,"time_elapsed":835416,"internal_node_id":"0.0-19.43-1.43"},{"rt":null,"stimulus":"<div style=\"background-color:#ff7157\"><h1 style=\"background-color:Tomato\">Bad luck! There was no prize in the box!</h1><h1 style=\"background-color:Tomato\">Remember, you need to keep going until you have 20 prizes!</h1><img id=\"box\" src=\"img/sad/blueopenboxsadthumb.png\"></img></div>","key_press":null,"trial_type":"html-keyboard-response","trial_index":111,"time_elapsed":836918,"internal_node_id":"0.0-19.43-1.43"},{"rt":568.2050000177696,"stimulus":"<p>Choose a box,</p>","button_pressed":2,"trial_type":"html-button-response","trial_index":112,"time_elapsed":837488,"internal_node_id":"0.0-19.44-0.44"},{"rate":0.5620127792322015,"trial_type":"html-keyboard-response","trial_index":113,"time_elapsed":837488,"internal_node_id":"0.0-19.44-1.44"},{"rt":null,"stimulus":"<div style=\"background-color:#ff7157\"><h1 style=\"background-color:Tomato\">Bad luck! There was no prize in the box!</h1><h1 style=\"background-color:Tomato\">Remember, you need to keep going until you have 20 prizes!</h1><img id=\"box\" src=\"img/sad/purpleopenboxsadthumb.png\"></img></div>","key_press":null,"trial_type":"html-keyboard-response","trial_index":113,"time_elapsed":839004,"internal_node_id":"0.0-19.44-1.44"},{"rt":731.1599999957252,"stimulus":"<p>Choose a box,</p>","button_pressed":2,"trial_type":"html-button-response","trial_index":114,"time_elapsed":839737,"internal_node_id":"0.0-19.45-0.45"},{"rate":0.5620127792322015,"trial_type":"html-keyboard-response","trial_index":115,"time_elapsed":839737,"internal_node_id":"0.0-19.45-1.45"},{"rt":null,"stimulus":"<div style=\"background-color:#6dce98\"><h1 style=\"background-color:MediumSeaGreen\" >You won a prize! Well done!</h1><div style=\"background-color:#6dce98\"><h1 style=\"background-color:MediumSeaGreen\" >Only 9 left to go!</h1><img id=\"box\" src=\"img/prizes/ring.png\"></img><img id=\"box\" src=\"img/empty/purpleopenbox.png\"></img></div>","key_press":null,"trial_type":"html-keyboard-response","trial_index":115,"time_elapsed":841251,"internal_node_id":"0.0-19.45-1.45"},{"rt":979.6199999982491,"stimulus":"<p>Choose a box,</p>","button_pressed":2,"trial_type":"html-button-response","trial_index":116,"time_elapsed":842233,"internal_node_id":"0.0-19.46-0.46"},{"rate":0.5620127792322015,"trial_type":"html-keyboard-response","trial_index":117,"time_elapsed":842233,"internal_node_id":"0.0-19.46-1.46"},{"rt":null,"stimulus":"<div style=\"background-color:#ff7157\"><h1 style=\"background-color:Tomato\">Bad luck! There was no prize in the box!</h1><h1 style=\"background-color:Tomato\">Remember, you need to keep going until you have 20 prizes!</h1><img id=\"box\" src=\"img/sad/purpleopenboxsadthumb.png\"></img></div>","key_press":null,"trial_type":"html-keyboard-response","trial_index":117,"time_elapsed":843742,"internal_node_id":"0.0-19.46-1.46"},{"rt":1271.5850000095088,"stimulus":"<p>Choose a box,</p>","button_pressed":3,"trial_type":"html-button-response","trial_index":118,"time_elapsed":845017,"internal_node_id":"0.0-19.47-0.47"},{"rate":0.08814954785722445,"trial_type":"html-keyboard-response","trial_index":119,"time_elapsed":845017,"internal_node_id":"0.0-19.47-1.47"},{"rt":null,"stimulus":"<div style=\"background-color:#ff7157\"><h1 style=\"background-color:Tomato\">Bad luck! There was no prize in the box!</h1><h1 style=\"background-color:Tomato\">Remember, you need to keep going until you have 20 prizes!</h1><img id=\"box\" src=\"img/sad/redopenboxsadthumb.png\"></img></div>","key_press":null,"trial_type":"html-keyboard-response","trial_index":119,"time_elapsed":846521,"internal_node_id":"0.0-19.47-1.47"},{"rt":236.8750000023283,"stimulus":"<p>Choose a box,</p>","button_pressed":3,"trial_type":"html-button-response","trial_index":120,"time_elapsed":846760,"internal_node_id":"0.0-19.48-0.48"},{"rate":0.08814954785722445,"trial_type":"html-keyboard-response","trial_index":121,"time_elapsed":846761,"internal_node_id":"0.0-19.48-1.48"},{"rt":null,"stimulus":"<div style=\"background-color:#ff7157\"><h1 style=\"background-color:Tomato\">Bad luck! There was no prize in the box!</h1><h1 style=\"background-color:Tomato\">Remember, you need to keep going until you have 20 prizes!</h1><img id=\"box\" src=\"img/sad/redopenboxsadthumb.png\"></img></div>","key_press":null,"trial_type":"html-keyboard-response","trial_index":121,"time_elapsed":848274,"internal_node_id":"0.0-19.48-1.48"},{"rt":645.4049999883864,"stimulus":"<p>Choose a box,</p>","button_pressed":3,"trial_type":"html-button-response","trial_index":122,"time_elapsed":848921,"internal_node_id":"0.0-19.49-0.49"},{"rate":0.08814954785722445,"trial_type":"html-keyboard-response","trial_index":123,"time_elapsed":848921,"internal_node_id":"0.0-19.49-1.49"},{"rt":null,"stimulus":"<div style=\"background-color:#ff7157\"><h1 style=\"background-color:Tomato\">Bad luck! There was no prize in the box!</h1><h1 style=\"background-color:Tomato\">Remember, you need to keep going until you have 20 prizes!</h1><img id=\"box\" src=\"img/sad/redopenboxsadthumb.png\"></img></div>","key_press":null,"trial_type":"html-keyboard-response","trial_index":123,"time_elapsed":850422,"internal_node_id":"0.0-19.49-1.49"},{"rt":967.9999999934807,"stimulus":"<p>Choose a box,</p>","button_pressed":1,"trial_type":"html-button-response","trial_index":124,"time_elapsed":851392,"internal_node_id":"0.0-19.50-0.50"},{"rate":0.21717580717990187,"trial_type":"html-keyboard-response","trial_index":125,"time_elapsed":851392,"internal_node_id":"0.0-19.50-1.50"},{"rt":null,"stimulus":"<div style=\"background-color:#ff7157\"><h1 style=\"background-color:Tomato\">Bad luck! There was no prize in the box!</h1><h1 style=\"background-color:Tomato\">Remember, you need to keep going until you have 20 prizes!</h1><img id=\"box\" src=\"img/sad/greenopenboxsadthumb.png\"></img></div>","key_press":null,"trial_type":"html-keyboard-response","trial_index":125,"time_elapsed":852896,"internal_node_id":"0.0-19.50-1.50"},{"rt":871.0449999780394,"stimulus":"<p>Choose a box,</p>","button_pressed":0,"trial_type":"html-button-response","trial_index":126,"time_elapsed":853768,"internal_node_id":"0.0-19.51-0.51"},{"rate":0.3489578723425996,"trial_type":"html-keyboard-response","trial_index":127,"time_elapsed":853769,"internal_node_id":"0.0-19.51-1.51"},{"rt":null,"stimulus":"<div style=\"background-color:#ff7157\"><h1 style=\"background-color:Tomato\">Bad luck! There was no prize in the box!</h1><h1 style=\"background-color:Tomato\">Remember, you need to keep going until you have 20 prizes!</h1><img id=\"box\" src=\"img/sad/blueopenboxsadthumb.png\"></img></div>","key_press":null,"trial_type":"html-keyboard-response","trial_index":127,"time_elapsed":855282,"internal_node_id":"0.0-19.51-1.51"},{"rt":1148.0049999954645,"stimulus":"<p>Choose a box,</p>","button_pressed":2,"trial_type":"html-button-response","trial_index":128,"time_elapsed":856432,"internal_node_id":"0.0-19.52-0.52"},{"rate":0.5620127792322015,"trial_type":"html-keyboard-response","trial_index":129,"time_elapsed":856432,"internal_node_id":"0.0-19.52-1.52"},{"rt":null,"stimulus":"<div style=\"background-color:#ff7157\"><h1 style=\"background-color:Tomato\">Bad luck! There was no prize in the box!</h1><h1 style=\"background-color:Tomato\">Remember, you need to keep going until you have 20 prizes!</h1><img id=\"box\" src=\"img/sad/purpleopenboxsadthumb.png\"></img></div>","key_press":null,"trial_type":"html-keyboard-response","trial_index":129,"time_elapsed":857934,"internal_node_id":"0.0-19.52-1.52"},{"rt":719.7950000117999,"stimulus":"<p>Choose a box,</p>","button_pressed":3,"trial_type":"html-button-response","trial_index":130,"time_elapsed":858657,"internal_node_id":"0.0-19.53-0.53"},{"rate":0.08814954785722445,"trial_type":"html-keyboard-response","trial_index":131,"time_elapsed":858657,"internal_node_id":"0.0-19.53-1.53"},{"rt":null,"stimulus":"<div style=\"background-color:#ff7157\"><h1 style=\"background-color:Tomato\">Bad luck! There was no prize in the box!</h1><h1 style=\"background-color:Tomato\">Remember, you need to keep going until you have 20 prizes!</h1><img id=\"box\" src=\"img/sad/redopenboxsadthumb.png\"></img></div>","key_press":null,"trial_type":"html-keyboard-response","trial_index":131,"time_elapsed":860159,"internal_node_id":"0.0-19.53-1.53"},{"rt":566.5199999930337,"stimulus":"<p>Choose a box,</p>","button_pressed":1,"trial_type":"html-button-response","trial_index":132,"time_elapsed":860728,"internal_node_id":"0.0-19.54-0.54"},{"rate":0.21717580717990187,"trial_type":"html-keyboard-response","trial_index":133,"time_elapsed":860728,"internal_node_id":"0.0-19.54-1.54"},{"rt":null,"stimulus":"<div style=\"background-color:#ff7157\"><h1 style=\"background-color:Tomato\">Bad luck! There was no prize in the box!</h1><h1 style=\"background-color:Tomato\">Remember, you need to keep going until you have 20 prizes!</h1><img id=\"box\" src=\"img/sad/greenopenboxsadthumb.png\"></img></div>","key_press":null,"trial_type":"html-keyboard-response","trial_index":133,"time_elapsed":862236,"internal_node_id":"0.0-19.54-1.54"},{"rt":1081.7450000031386,"stimulus":"<p>Choose a box,</p>","button_pressed":3,"trial_type":"html-button-response","trial_index":134,"time_elapsed":863321,"internal_node_id":"0.0-19.55-0.55"},{"rate":0.08814954785722445,"trial_type":"html-keyboard-response","trial_index":135,"time_elapsed":863321,"internal_node_id":"0.0-19.55-1.55"},{"rt":null,"stimulus":"<div style=\"background-color:#ff7157\"><h1 style=\"background-color:Tomato\">Bad luck! There was no prize in the box!</h1><h1 style=\"background-color:Tomato\">Remember, you need to keep going until you have 20 prizes!</h1><img id=\"box\" src=\"img/sad/redopenboxsadthumb.png\"></img></div>","key_press":null,"trial_type":"html-keyboard-response","trial_index":135,"time_elapsed":864828,"internal_node_id":"0.0-19.55-1.55"},{"rt":849.7649999917485,"stimulus":"<p>Choose a box,</p>","button_pressed":3,"trial_type":"html-button-response","trial_index":136,"time_elapsed":865680,"internal_node_id":"0.0-19.56-0.56"},{"rate":0.08814954785722445,"trial_type":"html-keyboard-response","trial_index":137,"time_elapsed":865680,"internal_node_id":"0.0-19.56-1.56"},{"rt":null,"stimulus":"<div style=\"background-color:#ff7157\"><h1 style=\"background-color:Tomato\">Bad luck! There was no prize in the box!</h1><h1 style=\"background-color:Tomato\">Remember, you need to keep going until you have 20 prizes!</h1><img id=\"box\" src=\"img/sad/redopenboxsadthumb.png\"></img></div>","key_press":null,"trial_type":"html-keyboard-response","trial_index":137,"time_elapsed":867190,"internal_node_id":"0.0-19.56-1.56"},{"rt":1215.074999985518,"stimulus":"<p>Choose a box,</p>","button_pressed":1,"trial_type":"html-button-response","trial_index":138,"time_elapsed":868408,"internal_node_id":"0.0-19.57-0.57"},{"rate":0.21717580717990187,"trial_type":"html-keyboard-response","trial_index":139,"time_elapsed":868409,"internal_node_id":"0.0-19.57-1.57"},{"rt":null,"stimulus":"<div style=\"background-color:#6dce98\"><h1 style=\"background-color:MediumSeaGreen\" >You won a prize! Well done!</h1><div style=\"background-color:#6dce98\"><h1 style=\"background-color:MediumSeaGreen\" >Only 8 left to go!</h1><img id=\"box\" src=\"img/prizes/coins.png\"></img><img id=\"box\" src=\"img/empty/greenopenbox.png\"></img></div>","key_press":null,"trial_type":"html-keyboard-response","trial_index":139,"time_elapsed":869922,"internal_node_id":"0.0-19.57-1.57"},{"rt":1179.4499999959953,"stimulus":"<p>Choose a box,</p>","button_pressed":3,"trial_type":"html-button-response","trial_index":140,"time_elapsed":871104,"internal_node_id":"0.0-19.58-0.58"},{"rate":0.08814954785722445,"trial_type":"html-keyboard-response","trial_index":141,"time_elapsed":871105,"internal_node_id":"0.0-19.58-1.58"},{"rt":null,"stimulus":"<div style=\"background-color:#ff7157\"><h1 style=\"background-color:Tomato\">Bad luck! There was no prize in the box!</h1><h1 style=\"background-color:Tomato\">Remember, you need to keep going until you have 20 prizes!</h1><img id=\"box\" src=\"img/sad/redopenboxsadthumb.png\"></img></div>","key_press":null,"trial_type":"html-keyboard-response","trial_index":141,"time_elapsed":872614,"internal_node_id":"0.0-19.58-1.58"},{"rt":737.2049999830779,"stimulus":"<p>Choose a box,</p>","button_pressed":3,"trial_type":"html-button-response","trial_index":142,"time_elapsed":873353,"internal_node_id":"0.0-19.59-0.59"},{"rate":0.08814954785722445,"trial_type":"html-keyboard-response","trial_index":143,"time_elapsed":873353,"internal_node_id":"0.0-19.59-1.59"},{"rt":null,"stimulus":"<div style=\"background-color:#ff7157\"><h1 style=\"background-color:Tomato\">Bad luck! There was no prize in the box!</h1><h1 style=\"background-color:Tomato\">Remember, you need to keep going until you have 20 prizes!</h1><img id=\"box\" src=\"img/sad/redopenboxsadthumb.png\"></img></div>","key_press":null,"trial_type":"html-keyboard-response","trial_index":143,"time_elapsed":874860,"internal_node_id":"0.0-19.59-1.59"},{"rt":865.4549999919254,"stimulus":"<p>Choose a box,</p>","button_pressed":1,"trial_type":"html-button-response","trial_index":144,"time_elapsed":875729,"internal_node_id":"0.0-19.60-0.60"},{"rate":0.21717580717990187,"trial_type":"html-keyboard-response","trial_index":145,"time_elapsed":875729,"internal_node_id":"0.0-19.60-1.60"},{"rt":null,"stimulus":"<div style=\"background-color:#6dce98\"><h1 style=\"background-color:MediumSeaGreen\" >You won a prize! Well done!</h1><div style=\"background-color:#6dce98\"><h1 style=\"background-color:MediumSeaGreen\" >Only 7 left to go!</h1><img id=\"box\" src=\"img/prizes/ring.png\"></img><img id=\"box\" src=\"img/empty/greenopenbox.png\"></img></div>","key_press":null,"trial_type":"html-keyboard-response","trial_index":145,"time_elapsed":877231,"internal_node_id":"0.0-19.60-1.60"},{"rt":974.6150000137277,"stimulus":"<p>Choose a box,</p>","button_pressed":3,"trial_type":"html-button-response","trial_index":146,"time_elapsed":878208,"internal_node_id":"0.0-19.61-0.61"},{"rate":0.08814954785722445,"trial_type":"html-keyboard-response","trial_index":147,"time_elapsed":878208,"internal_node_id":"0.0-19.61-1.61"},{"rt":null,"stimulus":"<div style=\"background-color:#ff7157\"><h1 style=\"background-color:Tomato\">Bad luck! There was no prize in the box!</h1><h1 style=\"background-color:Tomato\">Remember, you need to keep going until you have 20 prizes!</h1><img id=\"box\" src=\"img/sad/redopenboxsadthumb.png\"></img></div>","key_press":null,"trial_type":"html-keyboard-response","trial_index":147,"time_elapsed":879715,"internal_node_id":"0.0-19.61-1.61"},{"rt":874.2550000024494,"stimulus":"<p>Choose a box,</p>","button_pressed":1,"trial_type":"html-button-response","trial_index":148,"time_elapsed":880592,"internal_node_id":"0.0-19.62-0.62"},{"rate":0.21717580717990187,"trial_type":"html-keyboard-response","trial_index":149,"time_elapsed":880592,"internal_node_id":"0.0-19.62-1.62"},{"rt":null,"stimulus":"<div style=\"background-color:#ff7157\"><h1 style=\"background-color:Tomato\">Bad luck! There was no prize in the box!</h1><h1 style=\"background-color:Tomato\">Remember, you need to keep going until you have 20 prizes!</h1><img id=\"box\" src=\"img/sad/greenopenboxsadthumb.png\"></img></div>","key_press":null,"trial_type":"html-keyboard-response","trial_index":149,"time_elapsed":882094,"internal_node_id":"0.0-19.62-1.62"},{"rt":1456.849999987753,"stimulus":"<p>Choose a box,</p>","button_pressed":3,"trial_type":"html-button-response","trial_index":150,"time_elapsed":883552,"internal_node_id":"0.0-19.63-0.63"},{"rate":0.08814954785722445,"trial_type":"html-keyboard-response","trial_index":151,"time_elapsed":883553,"internal_node_id":"0.0-19.63-1.63"},{"rt":null,"stimulus":"<div style=\"background-color:#ff7157\"><h1 style=\"background-color:Tomato\">Bad luck! There was no prize in the box!</h1><h1 style=\"background-color:Tomato\">Remember, you need to keep going until you have 20 prizes!</h1><img id=\"box\" src=\"img/sad/redopenboxsadthumb.png\"></img></div>","key_press":null,"trial_type":"html-keyboard-response","trial_index":151,"time_elapsed":885061,"internal_node_id":"0.0-19.63-1.63"},{"rt":704.2249999940395,"stimulus":"<p>Choose a box,</p>","button_pressed":0,"trial_type":"html-button-response","trial_index":152,"time_elapsed":885768,"internal_node_id":"0.0-19.64-0.64"},{"rate":0.3489578723425996,"trial_type":"html-keyboard-response","trial_index":153,"time_elapsed":885768,"internal_node_id":"0.0-19.64-1.64"},{"rt":null,"stimulus":"<div style=\"background-color:#ff7157\"><h1 style=\"background-color:Tomato\">Bad luck! There was no prize in the box!</h1><h1 style=\"background-color:Tomato\">Remember, you need to keep going until you have 20 prizes!</h1><img id=\"box\" src=\"img/sad/blueopenboxsadthumb.png\"></img></div>","key_press":null,"trial_type":"html-keyboard-response","trial_index":153,"time_elapsed":887280,"internal_node_id":"0.0-19.64-1.64"},{"rt":910.5150000250433,"stimulus":"<p>Choose a box,</p>","button_pressed":2,"trial_type":"html-button-response","trial_index":154,"time_elapsed":888192,"internal_node_id":"0.0-19.65-0.65"},{"rate":0.5620127792322015,"trial_type":"html-keyboard-response","trial_index":155,"time_elapsed":888192,"internal_node_id":"0.0-19.65-1.65"},{"rt":null,"stimulus":"<div style=\"background-color:#ff7157\"><h1 style=\"background-color:Tomato\">Bad luck! There was no prize in the box!</h1><h1 style=\"background-color:Tomato\">Remember, you need to keep going until you have 20 prizes!</h1><img id=\"box\" src=\"img/sad/purpleopenboxsadthumb.png\"></img></div>","key_press":null,"trial_type":"html-keyboard-response","trial_index":155,"time_elapsed":889694,"internal_node_id":"0.0-19.65-1.65"},{"rt":608.0249999940861,"stimulus":"<p>Choose a box,</p>","button_pressed":3,"trial_type":"html-button-response","trial_index":156,"time_elapsed":890304,"internal_node_id":"0.0-19.66-0.66"},{"rate":0.08814954785722445,"trial_type":"html-keyboard-response","trial_index":157,"time_elapsed":890304,"internal_node_id":"0.0-19.66-1.66"},{"rt":null,"stimulus":"<div style=\"background-color:#ff7157\"><h1 style=\"background-color:Tomato\">Bad luck! There was no prize in the box!</h1><h1 style=\"background-color:Tomato\">Remember, you need to keep going until you have 20 prizes!</h1><img id=\"box\" src=\"img/sad/redopenboxsadthumb.png\"></img></div>","key_press":null,"trial_type":"html-keyboard-response","trial_index":157,"time_elapsed":891806,"internal_node_id":"0.0-19.66-1.66"},{"rt":758.8849999883678,"stimulus":"<p>Choose a box,</p>","button_pressed":1,"trial_type":"html-button-response","trial_index":158,"time_elapsed":892568,"internal_node_id":"0.0-19.67-0.67"},{"rate":0.21717580717990187,"trial_type":"html-keyboard-response","trial_index":159,"time_elapsed":892568,"internal_node_id":"0.0-19.67-1.67"},{"rt":null,"stimulus":"<div style=\"background-color:#ff7157\"><h1 style=\"background-color:Tomato\">Bad luck! There was no prize in the box!</h1><h1 style=\"background-color:Tomato\">Remember, you need to keep going until you have 20 prizes!</h1><img id=\"box\" src=\"img/sad/greenopenboxsadthumb.png\"></img></div>","key_press":null,"trial_type":"html-keyboard-response","trial_index":159,"time_elapsed":894082,"internal_node_id":"0.0-19.67-1.67"},{"rt":835.094999987632,"stimulus":"<p>Choose a box,</p>","button_pressed":1,"trial_type":"html-button-response","trial_index":160,"time_elapsed":894920,"internal_node_id":"0.0-19.68-0.68"},{"rate":0.21717580717990187,"trial_type":"html-keyboard-response","trial_index":161,"time_elapsed":894920,"internal_node_id":"0.0-19.68-1.68"},{"rt":null,"stimulus":"<div style=\"background-color:#ff7157\"><h1 style=\"background-color:Tomato\">Bad luck! There was no prize in the box!</h1><h1 style=\"background-color:Tomato\">Remember, you need to keep going until you have 20 prizes!</h1><img id=\"box\" src=\"img/sad/greenopenboxsadthumb.png\"></img></div>","key_press":null,"trial_type":"html-keyboard-response","trial_index":161,"time_elapsed":896431,"internal_node_id":"0.0-19.68-1.68"},{"rt":623.4549999935552,"stimulus":"<p>Choose a box,</p>","button_pressed":1,"trial_type":"html-button-response","trial_index":162,"time_elapsed":897056,"internal_node_id":"0.0-19.69-0.69"},{"rate":0.21717580717990187,"trial_type":"html-keyboard-response","trial_index":163,"time_elapsed":897056,"internal_node_id":"0.0-19.69-1.69"},{"rt":null,"stimulus":"<div style=\"background-color:#ff7157\"><h1 style=\"background-color:Tomato\">Bad luck! There was no prize in the box!</h1><h1 style=\"background-color:Tomato\">Remember, you need to keep going until you have 20 prizes!</h1><img id=\"box\" src=\"img/sad/greenopenboxsadthumb.png\"></img></div>","key_press":null,"trial_type":"html-keyboard-response","trial_index":163,"time_elapsed":898559,"internal_node_id":"0.0-19.69-1.69"},{"rt":569.4300000031944,"stimulus":"<p>Choose a box,</p>","button_pressed":0,"trial_type":"html-button-response","trial_index":164,"time_elapsed":899129,"internal_node_id":"0.0-19.70-0.70"},{"rate":0.3489578723425996,"trial_type":"html-keyboard-response","trial_index":165,"time_elapsed":899130,"internal_node_id":"0.0-19.70-1.70"},{"rt":null,"stimulus":"<div style=\"background-color:#6dce98\"><h1 style=\"background-color:MediumSeaGreen\" >You won a prize! Well done!</h1><div style=\"background-color:#6dce98\"><h1 style=\"background-color:MediumSeaGreen\" >Only 6 left to go!</h1><img id=\"box\" src=\"img/prizes/flowers.png\"></img><img id=\"box\" src=\"img/empty/blueopenbox.png\"></img></div>","key_press":null,"trial_type":"html-keyboard-response","trial_index":165,"time_elapsed":900636,"internal_node_id":"0.0-19.70-1.70"},{"rt":1098.245000001043,"stimulus":"<p>Choose a box,</p>","button_pressed":0,"trial_type":"html-button-response","trial_index":166,"time_elapsed":901736,"internal_node_id":"0.0-19.71-0.71"},{"rate":0.3489578723425996,"trial_type":"html-keyboard-response","trial_index":167,"time_elapsed":901736,"internal_node_id":"0.0-19.71-1.71"},{"rt":null,"stimulus":"<div style=\"background-color:#ff7157\"><h1 style=\"background-color:Tomato\">Bad luck! There was no prize in the box!</h1><h1 style=\"background-color:Tomato\">Remember, you need to keep going until you have 20 prizes!</h1><img id=\"box\" src=\"img/sad/blueopenboxsadthumb.png\"></img></div>","key_press":null,"trial_type":"html-keyboard-response","trial_index":167,"time_elapsed":903238,"internal_node_id":"0.0-19.71-1.71"},{"rt":718.7799999956042,"stimulus":"<p>Choose a box,</p>","button_pressed":3,"trial_type":"html-button-response","trial_index":168,"time_elapsed":903960,"internal_node_id":"0.0-19.72-0.72"},{"rate":0.08814954785722445,"trial_type":"html-keyboard-response","trial_index":169,"time_elapsed":903960,"internal_node_id":"0.0-19.72-1.72"},{"rt":null,"stimulus":"<div style=\"background-color:#ff7157\"><h1 style=\"background-color:Tomato\">Bad luck! There was no prize in the box!</h1><h1 style=\"background-color:Tomato\">Remember, you need to keep going until you have 20 prizes!</h1><img id=\"box\" src=\"img/sad/redopenboxsadthumb.png\"></img></div>","key_press":null,"trial_type":"html-keyboard-response","trial_index":169,"time_elapsed":905468,"internal_node_id":"0.0-19.72-1.72"},{"rt":551.9349999958649,"stimulus":"<p>Choose a box,</p>","button_pressed":2,"trial_type":"html-button-response","trial_index":170,"time_elapsed":906023,"internal_node_id":"0.0-19.73-0.73"},{"rate":0.5620127792322015,"trial_type":"html-keyboard-response","trial_index":171,"time_elapsed":906023,"internal_node_id":"0.0-19.73-1.73"},{"rt":null,"stimulus":"<div style=\"background-color:#6dce98\"><h1 style=\"background-color:MediumSeaGreen\" >You won a prize! Well done!</h1><div style=\"background-color:#6dce98\"><h1 style=\"background-color:MediumSeaGreen\" >Only 5 left to go!</h1><img id=\"box\" src=\"img/prizes/bear.png\"></img><img id=\"box\" src=\"img/empty/purpleopenbox.png\"></img></div>","key_press":null,"trial_type":"html-keyboard-response","trial_index":171,"time_elapsed":907538,"internal_node_id":"0.0-19.73-1.73"},{"rt":1203.4200000052806,"stimulus":"<p>Choose a box,</p>","button_pressed":2,"trial_type":"html-button-response","trial_index":172,"time_elapsed":908743,"internal_node_id":"0.0-19.74-0.74"},{"rate":0.5620127792322015,"trial_type":"html-keyboard-response","trial_index":173,"time_elapsed":908743,"internal_node_id":"0.0-19.74-1.74"},{"rt":null,"stimulus":"<div style=\"background-color:#6dce98\"><h1 style=\"background-color:MediumSeaGreen\" >You won a prize! Well done!</h1><div style=\"background-color:#6dce98\"><h1 style=\"background-color:MediumSeaGreen\" >Only 4 left to go!</h1><img id=\"box\" src=\"img/prizes/lolipop.png\"></img><img id=\"box\" src=\"img/empty/purpleopenbox.png\"></img></div>","key_press":null,"trial_type":"html-keyboard-response","trial_index":173,"time_elapsed":910246,"internal_node_id":"0.0-19.74-1.74"},{"rt":1078.139999997802,"stimulus":"<p>Choose a box,</p>","button_pressed":2,"trial_type":"html-button-response","trial_index":174,"time_elapsed":911327,"internal_node_id":"0.0-19.75-0.75"},{"rate":0.5620127792322015,"trial_type":"html-keyboard-response","trial_index":175,"time_elapsed":911327,"internal_node_id":"0.0-19.75-1.75"},{"rt":null,"stimulus":"<div style=\"background-color:#ff7157\"><h1 style=\"background-color:Tomato\">Bad luck! There was no prize in the box!</h1><h1 style=\"background-color:Tomato\">Remember, you need to keep going until you have 20 prizes!</h1><img id=\"box\" src=\"img/sad/purpleopenboxsadthumb.png\"></img></div>","key_press":null,"trial_type":"html-keyboard-response","trial_index":175,"time_elapsed":912829,"internal_node_id":"0.0-19.75-1.75"},{"rt":1241.5449999971315,"stimulus":"<p>Choose a box,</p>","button_pressed":3,"trial_type":"html-button-response","trial_index":176,"time_elapsed":914072,"internal_node_id":"0.0-19.76-0.76"},{"rate":0.08814954785722445,"trial_type":"html-keyboard-response","trial_index":177,"time_elapsed":914072,"internal_node_id":"0.0-19.76-1.76"},{"rt":null,"stimulus":"<div style=\"background-color:#ff7157\"><h1 style=\"background-color:Tomato\">Bad luck! There was no prize in the box!</h1><h1 style=\"background-color:Tomato\">Remember, you need to keep going until you have 20 prizes!</h1><img id=\"box\" src=\"img/sad/redopenboxsadthumb.png\"></img></div>","key_press":null,"trial_type":"html-keyboard-response","trial_index":177,"time_elapsed":915574,"internal_node_id":"0.0-19.76-1.76"},{"rt":471.85000000172295,"stimulus":"<p>Choose a box,</p>","button_pressed":1,"trial_type":"html-button-response","trial_index":178,"time_elapsed":916047,"internal_node_id":"0.0-19.77-0.77"},{"rate":0.21717580717990187,"trial_type":"html-keyboard-response","trial_index":179,"time_elapsed":916048,"internal_node_id":"0.0-19.77-1.77"},{"rt":null,"stimulus":"<div style=\"background-color:#ff7157\"><h1 style=\"background-color:Tomato\">Bad luck! There was no prize in the box!</h1><h1 style=\"background-color:Tomato\">Remember, you need to keep going until you have 20 prizes!</h1><img id=\"box\" src=\"img/sad/greenopenboxsadthumb.png\"></img></div>","key_press":null,"trial_type":"html-keyboard-response","trial_index":179,"time_elapsed":917560,"internal_node_id":"0.0-19.77-1.77"},{"rt":396.8800000147894,"stimulus":"<p>Choose a box,</p>","button_pressed":1,"trial_type":"html-button-response","trial_index":180,"time_elapsed":917959,"internal_node_id":"0.0-19.78-0.78"},{"rate":0.21717580717990187,"trial_type":"html-keyboard-response","trial_index":181,"time_elapsed":917960,"internal_node_id":"0.0-19.78-1.78"},{"rt":null,"stimulus":"<div style=\"background-color:#ff7157\"><h1 style=\"background-color:Tomato\">Bad luck! There was no prize in the box!</h1><h1 style=\"background-color:Tomato\">Remember, you need to keep going until you have 20 prizes!</h1><img id=\"box\" src=\"img/sad/greenopenboxsadthumb.png\"></img></div>","key_press":null,"trial_type":"html-keyboard-response","trial_index":181,"time_elapsed":919472,"internal_node_id":"0.0-19.78-1.78"},{"rt":1108.5949999978766,"stimulus":"<p>Choose a box,</p>","button_pressed":0,"trial_type":"html-button-response","trial_index":182,"time_elapsed":920583,"internal_node_id":"0.0-19.79-0.79"},{"rate":0.3489578723425996,"trial_type":"html-keyboard-response","trial_index":183,"time_elapsed":920584,"internal_node_id":"0.0-19.79-1.79"},{"rt":null,"stimulus":"<div style=\"background-color:#ff7157\"><h1 style=\"background-color:Tomato\">Bad luck! There was no prize in the box!</h1><h1 style=\"background-color:Tomato\">Remember, you need to keep going until you have 20 prizes!</h1><img id=\"box\" src=\"img/sad/blueopenboxsadthumb.png\"></img></div>","key_press":null,"trial_type":"html-keyboard-response","trial_index":183,"time_elapsed":922089,"internal_node_id":"0.0-19.79-1.79"},{"rt":899.5799999975134,"stimulus":"<p>Choose a box,</p>","button_pressed":2,"trial_type":"html-button-response","trial_index":184,"time_elapsed":922992,"internal_node_id":"0.0-19.80-0.80"},{"rate":0.5620127792322015,"trial_type":"html-keyboard-response","trial_index":185,"time_elapsed":922992,"internal_node_id":"0.0-19.80-1.80"},{"rt":null,"stimulus":"<div style=\"background-color:#ff7157\"><h1 style=\"background-color:Tomato\">Bad luck! There was no prize in the box!</h1><h1 style=\"background-color:Tomato\">Remember, you need to keep going until you have 20 prizes!</h1><img id=\"box\" src=\"img/sad/purpleopenboxsadthumb.png\"></img></div>","key_press":null,"trial_type":"html-keyboard-response","trial_index":185,"time_elapsed":924494,"internal_node_id":"0.0-19.80-1.80"},{"rt":648.0799999844749,"stimulus":"<p>Choose a box,</p>","button_pressed":3,"trial_type":"html-button-response","trial_index":186,"time_elapsed":925143,"internal_node_id":"0.0-19.81-0.81"},{"rate":0.08814954785722445,"trial_type":"html-keyboard-response","trial_index":187,"time_elapsed":925144,"internal_node_id":"0.0-19.81-1.81"},{"rt":null,"stimulus":"<div style=\"background-color:#ff7157\"><h1 style=\"background-color:Tomato\">Bad luck! There was no prize in the box!</h1><h1 style=\"background-color:Tomato\">Remember, you need to keep going until you have 20 prizes!</h1><img id=\"box\" src=\"img/sad/redopenboxsadthumb.png\"></img></div>","key_press":null,"trial_type":"html-keyboard-response","trial_index":187,"time_elapsed":926646,"internal_node_id":"0.0-19.81-1.81"},{"rt":895.7050000026356,"stimulus":"<p>Choose a box,</p>","button_pressed":1,"trial_type":"html-button-response","trial_index":188,"time_elapsed":927543,"internal_node_id":"0.0-19.82-0.82"},{"rate":0.21717580717990187,"trial_type":"html-keyboard-response","trial_index":189,"time_elapsed":927543,"internal_node_id":"0.0-19.82-1.82"},{"rt":null,"stimulus":"<div style=\"background-color:#ff7157\"><h1 style=\"background-color:Tomato\">Bad luck! There was no prize in the box!</h1><h1 style=\"background-color:Tomato\">Remember, you need to keep going until you have 20 prizes!</h1><img id=\"box\" src=\"img/sad/greenopenboxsadthumb.png\"></img></div>","key_press":null,"trial_type":"html-keyboard-response","trial_index":189,"time_elapsed":929048,"internal_node_id":"0.0-19.82-1.82"},{"rt":572.0650000148453,"stimulus":"<p>Choose a box,</p>","button_pressed":1,"trial_type":"html-button-response","trial_index":190,"time_elapsed":929623,"internal_node_id":"0.0-19.83-0.83"},{"rate":0.21717580717990187,"trial_type":"html-keyboard-response","trial_index":191,"time_elapsed":929623,"internal_node_id":"0.0-19.83-1.83"},{"rt":null,"stimulus":"<div style=\"background-color:#ff7157\"><h1 style=\"background-color:Tomato\">Bad luck! There was no prize in the box!</h1><h1 style=\"background-color:Tomato\">Remember, you need to keep going until you have 20 prizes!</h1><img id=\"box\" src=\"img/sad/greenopenboxsadthumb.png\"></img></div>","key_press":null,"trial_type":"html-keyboard-response","trial_index":191,"time_elapsed":931139,"internal_node_id":"0.0-19.83-1.83"},{"rt":577.2550000110641,"stimulus":"<p>Choose a box,</p>","button_pressed":2,"trial_type":"html-button-response","trial_index":192,"time_elapsed":931719,"internal_node_id":"0.0-19.84-0.84"},{"rate":0.5620127792322015,"trial_type":"html-keyboard-response","trial_index":193,"time_elapsed":931720,"internal_node_id":"0.0-19.84-1.84"},{"rt":null,"stimulus":"<div style=\"background-color:#ff7157\"><h1 style=\"background-color:Tomato\">Bad luck! There was no prize in the box!</h1><h1 style=\"background-color:Tomato\">Remember, you need to keep going until you have 20 prizes!</h1><img id=\"box\" src=\"img/sad/purpleopenboxsadthumb.png\"></img></div>","key_press":null,"trial_type":"html-keyboard-response","trial_index":193,"time_elapsed":933235,"internal_node_id":"0.0-19.84-1.84"},{"rt":827.3650000046473,"stimulus":"<p>Choose a box,</p>","button_pressed":3,"trial_type":"html-button-response","trial_index":194,"time_elapsed":934066,"internal_node_id":"0.0-19.85-0.85"},{"rate":0.08814954785722445,"trial_type":"html-keyboard-response","trial_index":195,"time_elapsed":934066,"internal_node_id":"0.0-19.85-1.85"},{"rt":null,"stimulus":"<div style=\"background-color:#ff7157\"><h1 style=\"background-color:Tomato\">Bad luck! There was no prize in the box!</h1><h1 style=\"background-color:Tomato\">Remember, you need to keep going until you have 20 prizes!</h1><img id=\"box\" src=\"img/sad/redopenboxsadthumb.png\"></img></div>","key_press":null,"trial_type":"html-keyboard-response","trial_index":195,"time_elapsed":935568,"internal_node_id":"0.0-19.85-1.85"},{"rt":1556.4350000058766,"stimulus":"<p>Choose a box,</p>","button_pressed":0,"trial_type":"html-button-response","trial_index":196,"time_elapsed":937127,"internal_node_id":"0.0-19.86-0.86"},{"rate":0.3489578723425996,"trial_type":"html-keyboard-response","trial_index":197,"time_elapsed":937128,"internal_node_id":"0.0-19.86-1.86"},{"rt":null,"stimulus":"<div style=\"background-color:#6dce98\"><h1 style=\"background-color:MediumSeaGreen\" >You won a prize! Well done!</h1><div style=\"background-color:#6dce98\"><h1 style=\"background-color:MediumSeaGreen\" >Only 3 left to go!</h1><img id=\"box\" src=\"img/prizes/lolipop.png\"></img><img id=\"box\" src=\"img/empty/blueopenbox.png\"></img></div>","key_press":null,"trial_type":"html-keyboard-response","trial_index":197,"time_elapsed":938642,"internal_node_id":"0.0-19.86-1.86"},{"rt":1194.45499998983,"stimulus":"<p>Choose a box,</p>","button_pressed":0,"trial_type":"html-button-response","trial_index":198,"time_elapsed":939840,"internal_node_id":"0.0-19.87-0.87"},{"rate":0.3489578723425996,"trial_type":"html-keyboard-response","trial_index":199,"time_elapsed":939840,"internal_node_id":"0.0-19.87-1.87"},{"rt":null,"stimulus":"<div style=\"background-color:#6dce98\"><h1 style=\"background-color:MediumSeaGreen\" >You won a prize! Well done!</h1><div style=\"background-color:#6dce98\"><h1 style=\"background-color:MediumSeaGreen\" >Only 2 left to go!</h1><img id=\"box\" src=\"img/prizes/yoyo.png\"></img><img id=\"box\" src=\"img/empty/blueopenbox.png\"></img></div>","key_press":null,"trial_type":"html-keyboard-response","trial_index":199,"time_elapsed":941351,"internal_node_id":"0.0-19.87-1.87"},{"rt":1215.5300000158604,"stimulus":"<p>Choose a box,</p>","button_pressed":0,"trial_type":"html-button-response","trial_index":200,"time_elapsed":942568,"internal_node_id":"0.0-19.88-0.88"},{"rate":0.3489578723425996,"trial_type":"html-keyboard-response","trial_index":201,"time_elapsed":942568,"internal_node_id":"0.0-19.88-1.88"},{"rt":null,"stimulus":"<div style=\"background-color:#ff7157\"><h1 style=\"background-color:Tomato\">Bad luck! There was no prize in the box!</h1><h1 style=\"background-color:Tomato\">Remember, you need to keep going until you have 20 prizes!</h1><img id=\"box\" src=\"img/sad/blueopenboxsadthumb.png\"></img></div>","key_press":null,"trial_type":"html-keyboard-response","trial_index":201,"time_elapsed":944070,"internal_node_id":"0.0-19.88-1.88"},{"rt":1239.9049999949057,"stimulus":"<p>Choose a box,</p>","button_pressed":2,"trial_type":"html-button-response","trial_index":202,"time_elapsed":945311,"internal_node_id":"0.0-19.89-0.89"},{"rate":0.5620127792322015,"trial_type":"html-keyboard-response","trial_index":203,"time_elapsed":945311,"internal_node_id":"0.0-19.89-1.89"},{"rt":null,"stimulus":"<div style=\"background-color:#ff7157\"><h1 style=\"background-color:Tomato\">Bad luck! There was no prize in the box!</h1><h1 style=\"background-color:Tomato\">Remember, you need to keep going until you have 20 prizes!</h1><img id=\"box\" src=\"img/sad/purpleopenboxsadthumb.png\"></img></div>","key_press":null,"trial_type":"html-keyboard-response","trial_index":203,"time_elapsed":946813,"internal_node_id":"0.0-19.89-1.89"},{"rt":703.6650000081863,"stimulus":"<p>Choose a box,</p>","button_pressed":3,"trial_type":"html-button-response","trial_index":204,"time_elapsed":947520,"internal_node_id":"0.0-19.90-0.90"},{"rate":0.08814954785722445,"trial_type":"html-keyboard-response","trial_index":205,"time_elapsed":947520,"internal_node_id":"0.0-19.90-1.90"},{"rt":null,"stimulus":"<div style=\"background-color:#ff7157\"><h1 style=\"background-color:Tomato\">Bad luck! There was no prize in the box!</h1><h1 style=\"background-color:Tomato\">Remember, you need to keep going until you have 20 prizes!</h1><img id=\"box\" src=\"img/sad/redopenboxsadthumb.png\"></img></div>","key_press":null,"trial_type":"html-keyboard-response","trial_index":205,"time_elapsed":949033,"internal_node_id":"0.0-19.90-1.90"},{"rt":619.8549999971874,"stimulus":"<p>Choose a box,</p>","button_pressed":3,"trial_type":"html-button-response","trial_index":206,"time_elapsed":949655,"internal_node_id":"0.0-19.91-0.91"},{"rate":0.08814954785722445,"trial_type":"html-keyboard-response","trial_index":207,"time_elapsed":949655,"internal_node_id":"0.0-19.91-1.91"},{"rt":null,"stimulus":"<div style=\"background-color:#ff7157\"><h1 style=\"background-color:Tomato\">Bad luck! There was no prize in the box!</h1><h1 style=\"background-color:Tomato\">Remember, you need to keep going until you have 20 prizes!</h1><img id=\"box\" src=\"img/sad/redopenboxsadthumb.png\"></img></div>","key_press":null,"trial_type":"html-keyboard-response","trial_index":207,"time_elapsed":951156,"internal_node_id":"0.0-19.91-1.91"},{"rt":673.7999999895692,"stimulus":"<p>Choose a box,</p>","button_pressed":1,"trial_type":"html-button-response","trial_index":208,"time_elapsed":951832,"internal_node_id":"0.0-19.92-0.92"},{"rate":0.21717580717990187,"trial_type":"html-keyboard-response","trial_index":209,"time_elapsed":951832,"internal_node_id":"0.0-19.92-1.92"},{"rt":null,"stimulus":"<div style=\"background-color:#ff7157\"><h1 style=\"background-color:Tomato\">Bad luck! There was no prize in the box!</h1><h1 style=\"background-color:Tomato\">Remember, you need to keep going until you have 20 prizes!</h1><img id=\"box\" src=\"img/sad/greenopenboxsadthumb.png\"></img></div>","key_press":null,"trial_type":"html-keyboard-response","trial_index":209,"time_elapsed":953349,"internal_node_id":"0.0-19.92-1.92"},{"rt":214.59999997750856,"stimulus":"<p>Choose a box,</p>","button_pressed":3,"trial_type":"html-button-response","trial_index":210,"time_elapsed":953568,"internal_node_id":"0.0-19.93-0.93"},{"rate":0.08814954785722445,"trial_type":"html-keyboard-response","trial_index":211,"time_elapsed":953568,"internal_node_id":"0.0-19.93-1.93"},{"rt":null,"stimulus":"<div style=\"background-color:#ff7157\"><h1 style=\"background-color:Tomato\">Bad luck! There was no prize in the box!</h1><h1 style=\"background-color:Tomato\">Remember, you need to keep going until you have 20 prizes!</h1><img id=\"box\" src=\"img/sad/redopenboxsadthumb.png\"></img></div>","key_press":null,"trial_type":"html-keyboard-response","trial_index":211,"time_elapsed":955069,"internal_node_id":"0.0-19.93-1.93"},{"rt":423.71999999159016,"stimulus":"<p>Choose a box,</p>","button_pressed":3,"trial_type":"html-button-response","trial_index":212,"time_elapsed":955496,"internal_node_id":"0.0-19.94-0.94"},{"rate":0.08814954785722445,"trial_type":"html-keyboard-response","trial_index":213,"time_elapsed":955496,"internal_node_id":"0.0-19.94-1.94"},{"rt":null,"stimulus":"<div style=\"background-color:#ff7157\"><h1 style=\"background-color:Tomato\">Bad luck! There was no prize in the box!</h1><h1 style=\"background-color:Tomato\">Remember, you need to keep going until you have 20 prizes!</h1><img id=\"box\" src=\"img/sad/redopenboxsadthumb.png\"></img></div>","key_press":null,"trial_type":"html-keyboard-response","trial_index":213,"time_elapsed":956998,"internal_node_id":"0.0-19.94-1.94"},{"rt":1623.600000020815,"stimulus":"<p>Choose a box,</p>","button_pressed":2,"trial_type":"html-button-response","trial_index":214,"time_elapsed":958624,"internal_node_id":"0.0-19.95-0.95"},{"rate":0.5620127792322015,"trial_type":"html-keyboard-response","trial_index":215,"time_elapsed":958624,"internal_node_id":"0.0-19.95-1.95"},{"rt":null,"stimulus":"<div style=\"background-color:#ff7157\"><h1 style=\"background-color:Tomato\">Bad luck! There was no prize in the box!</h1><h1 style=\"background-color:Tomato\">Remember, you need to keep going until you have 20 prizes!</h1><img id=\"box\" src=\"img/sad/purpleopenboxsadthumb.png\"></img></div>","key_press":null,"trial_type":"html-keyboard-response","trial_index":215,"time_elapsed":960131,"internal_node_id":"0.0-19.95-1.95"},{"rt":1409.1499999922235,"stimulus":"<p>Choose a box,</p>","button_pressed":0,"trial_type":"html-button-response","trial_index":216,"time_elapsed":961543,"internal_node_id":"0.0-19.96-0.96"},{"rate":0.3489578723425996,"trial_type":"html-keyboard-response","trial_index":217,"time_elapsed":961543,"internal_node_id":"0.0-19.96-1.96"},{"rt":null,"stimulus":"<div style=\"background-color:#ff7157\"><h1 style=\"background-color:Tomato\">Bad luck! There was no prize in the box!</h1><h1 style=\"background-color:Tomato\">Remember, you need to keep going until you have 20 prizes!</h1><img id=\"box\" src=\"img/sad/blueopenboxsadthumb.png\"></img></div>","key_press":null,"trial_type":"html-keyboard-response","trial_index":217,"time_elapsed":963045,"internal_node_id":"0.0-19.96-1.96"},{"rt":736.2750000029337,"stimulus":"<p>Choose a box,</p>","button_pressed":3,"trial_type":"html-button-response","trial_index":218,"time_elapsed":963784,"internal_node_id":"0.0-19.97-0.97"},{"rate":0.08814954785722445,"trial_type":"html-keyboard-response","trial_index":219,"time_elapsed":963784,"internal_node_id":"0.0-19.97-1.97"},{"rt":null,"stimulus":"<div style=\"background-color:#ff7157\"><h1 style=\"background-color:Tomato\">Bad luck! There was no prize in the box!</h1><h1 style=\"background-color:Tomato\">Remember, you need to keep going until you have 20 prizes!</h1><img id=\"box\" src=\"img/sad/redopenboxsadthumb.png\"></img></div>","key_press":null,"trial_type":"html-keyboard-response","trial_index":219,"time_elapsed":965287,"internal_node_id":"0.0-19.97-1.97"},{"rt":567.1849999926053,"stimulus":"<p>Choose a box,</p>","button_pressed":1,"trial_type":"html-button-response","trial_index":220,"time_elapsed":965855,"internal_node_id":"0.0-19.98-0.98"},{"rate":0.21717580717990187,"trial_type":"html-keyboard-response","trial_index":221,"time_elapsed":965855,"internal_node_id":"0.0-19.98-1.98"},{"rt":null,"stimulus":"<div style=\"background-color:#ff7157\"><h1 style=\"background-color:Tomato\">Bad luck! There was no prize in the box!</h1><h1 style=\"background-color:Tomato\">Remember, you need to keep going until you have 20 prizes!</h1><img id=\"box\" src=\"img/sad/greenopenboxsadthumb.png\"></img></div>","key_press":null,"trial_type":"html-keyboard-response","trial_index":221,"time_elapsed":967357,"internal_node_id":"0.0-19.98-1.98"},{"rt":529.4850000063889,"stimulus":"<p>Choose a box,</p>","button_pressed":1,"trial_type":"html-button-response","trial_index":222,"time_elapsed":967889,"internal_node_id":"0.0-19.99-0.99"},{"rate":0.21717580717990187,"trial_type":"html-keyboard-response","trial_index":223,"time_elapsed":967889,"internal_node_id":"0.0-19.99-1.99"},{"rt":null,"stimulus":"<div style=\"background-color:#ff7157\"><h1 style=\"background-color:Tomato\">Bad luck! There was no prize in the box!</h1><h1 style=\"background-color:Tomato\">Remember, you need to keep going until you have 20 prizes!</h1><img id=\"box\" src=\"img/sad/greenopenboxsadthumb.png\"></img></div>","key_press":null,"trial_type":"html-keyboard-response","trial_index":223,"time_elapsed":969397,"internal_node_id":"0.0-19.99-1.99"},{"rt":295.55499998969026,"stimulus":"<p>Choose a box,</p>","button_pressed":1,"trial_type":"html-button-response","trial_index":224,"time_elapsed":969695,"internal_node_id":"0.0-19.100-0.100"},{"rate":0.21717580717990187,"trial_type":"html-keyboard-response","trial_index":225,"time_elapsed":969695,"internal_node_id":"0.0-19.100-1.100"},{"rt":null,"stimulus":"<div style=\"background-color:#ff7157\"><h1 style=\"background-color:Tomato\">Bad luck! There was no prize in the box!</h1><h1 style=\"background-color:Tomato\">Remember, you need to keep going until you have 20 prizes!</h1><img id=\"box\" src=\"img/sad/greenopenboxsadthumb.png\"></img></div>","key_press":null,"trial_type":"html-keyboard-response","trial_index":225,"time_elapsed":971209,"internal_node_id":"0.0-19.100-1.100"},{"rt":539.6349999937229,"stimulus":"<p>Choose a box,</p>","button_pressed":1,"trial_type":"html-button-response","trial_index":226,"time_elapsed":971751,"internal_node_id":"0.0-19.101-0.101"},{"rate":0.21717580717990187,"trial_type":"html-keyboard-response","trial_index":227,"time_elapsed":971751,"internal_node_id":"0.0-19.101-1.101"},{"rt":null,"stimulus":"<div style=\"background-color:#ff7157\"><h1 style=\"background-color:Tomato\">Bad luck! There was no prize in the box!</h1><h1 style=\"background-color:Tomato\">Remember, you need to keep going until you have 20 prizes!</h1><img id=\"box\" src=\"img/sad/greenopenboxsadthumb.png\"></img></div>","key_press":null,"trial_type":"html-keyboard-response","trial_index":227,"time_elapsed":973266,"internal_node_id":"0.0-19.101-1.101"},{"rt":578.1999999890104,"stimulus":"<p>Choose a box,</p>","button_pressed":1,"trial_type":"html-button-response","trial_index":228,"time_elapsed":973848,"internal_node_id":"0.0-19.102-0.102"},{"rate":0.21717580717990187,"trial_type":"html-keyboard-response","trial_index":229,"time_elapsed":973848,"internal_node_id":"0.0-19.102-1.102"},{"rt":null,"stimulus":"<div style=\"background-color:#ff7157\"><h1 style=\"background-color:Tomato\">Bad luck! There was no prize in the box!</h1><h1 style=\"background-color:Tomato\">Remember, you need to keep going until you have 20 prizes!</h1><img id=\"box\" src=\"img/sad/greenopenboxsadthumb.png\"></img></div>","key_press":null,"trial_type":"html-keyboard-response","trial_index":229,"time_elapsed":975349,"internal_node_id":"0.0-19.102-1.102"},{"rt":798.2649999903515,"stimulus":"<p>Choose a box,</p>","button_pressed":2,"trial_type":"html-button-response","trial_index":230,"time_elapsed":976151,"internal_node_id":"0.0-19.103-0.103"},{"rate":0.5620127792322015,"trial_type":"html-keyboard-response","trial_index":231,"time_elapsed":976151,"internal_node_id":"0.0-19.103-1.103"},{"rt":null,"stimulus":"<div style=\"background-color:#6dce98\"><h1 style=\"background-color:MediumSeaGreen\" >You won a prize! Well done!</h1><div style=\"background-color:#6dce98\"><h1 style=\"background-color:MediumSeaGreen\" >Only 1 left to go!</h1><img id=\"box\" src=\"img/prizes/flowers.png\"></img><img id=\"box\" src=\"img/empty/purpleopenbox.png\"></img></div>","key_press":null,"trial_type":"html-keyboard-response","trial_index":231,"time_elapsed":977660,"internal_node_id":"0.0-19.103-1.103"},{"rt":937.164999981178,"stimulus":"<p>Choose a box,</p>","button_pressed":2,"trial_type":"html-button-response","trial_index":232,"time_elapsed":978599,"internal_node_id":"0.0-19.104-0.104"},{"rate":0.5620127792322015,"trial_type":"html-keyboard-response","trial_index":233,"time_elapsed":978600,"internal_node_id":"0.0-19.104-1.104"},{"rt":null,"stimulus":"<div style=\"background-color:#6dce98\"><h1 style=\"background-color:MediumSeaGreen\" >You won a prize! Well done!</h1><div style=\"background-color:#6dce98\"><h1 style=\"background-color:MediumSeaGreen\" >Only 0 left to go!</h1><img id=\"box\" src=\"img/prizes/bear.png\"></img><img id=\"box\" src=\"img/empty/purpleopenbox.png\"></img></div>","key_press":null,"trial_type":"html-keyboard-response","trial_index":233,"time_elapsed":980112,"internal_node_id":"0.0-19.104-1.104"},{"rt":28762.870000005933,"responses":"{\"Q0\":\"interesting \",\"Q1\":\"try randomly\"}","trial_type":"survey-text","trial_index":234,"time_elapsed":1008895,"internal_node_id":"0.0-20.0"}]