[{"view_history":"[{\"page_index\":0,\"viewing_time\":27878.78999998793},{\"page_index\":1,\"viewing_time\":12012.844999786466},{\"page_index\":2,\"viewing_time\":22227.740000002086},{\"page_index\":3,\"viewing_time\":24093.040000181645},{\"page_index\":4,\"viewing_time\":3821.9500000122935},{\"page_index\":5,\"viewing_time\":11751.560000004247}]","rt":101786.62499994971,"trial_type":"instructions","trial_index":0,"time_elapsed":101790,"internal_node_id":"0.0-0.0"},{"rt":11043.215000070632,"responses":"{\"Q0\":\"Yes\",\"Q1\":\"Yes\",\"Q2\":\"Yes\"}","question_order":"[0,1,2]","trial_type":"survey-multi-choice","trial_index":1,"time_elapsed":112835,"internal_node_id":"0.0-1.0-0.0"},{"rt":17294.324999907985,"responses":"{\"Q0\":\"Yes\",\"Q1\":\"Yes\",\"Q2\":\"Yes\"}","question_order":"[0,1,2]","trial_type":"survey-multi-choice","trial_index":2,"time_elapsed":130134,"internal_node_id":"0.0-2.0-0.0"},{"rt":18637.45000003837,"responses":"{\"Q0\":\"5fef258d9bf07d1e692c598b\"}","trial_type":"survey-text","trial_index":3,"time_elapsed":148777,"internal_node_id":"0.0-3.0"},{"rt":7789.0149999875575,"responses":"{\"Q0\":\"Male\",\"Q1\":\"35-44\"}","question_order":"[0,1]","trial_type":"survey-multi-choice","trial_index":4,"time_elapsed":156567,"internal_node_id":"0.0-4.0"},{"rt":5901.9749998115,"responses":"{\"Q0\":\"\"}","trial_type":"survey-text","trial_index":5,"time_elapsed":162474,"internal_node_id":"0.0-5.0"},{"view_history":"[{\"page_index\":0,\"viewing_time\":9876.054999884218}]","rt":9876.3349999208,"trial_type":"instructions","trial_index":6,"time_elapsed":172351,"internal_node_id":"0.0-6.0"},{"rt":26484.64999999851,"responses":"{\"Interested\":3,\"Distressed\":2,\"Excited\":4,\"Upset\":2}","question_order":"[0,1,2,3]","trial_type":"survey-likert","trial_index":7,"time_elapsed":198837,"internal_node_id":"0.0-7.0"},{"rt":22534.080000128597,"responses":"{\"Strong\":3,\"Guilty\":1,\"Scared\":1,\"Hostile\":0}","question_order":"[0,1,2,3]","trial_type":"survey-likert","trial_index":8,"time_elapsed":221375,"internal_node_id":"0.0-8.0"},{"rt":14073.809999972582,"responses":"{\"Enthusiastic\":4,\"Proud\":2,\"Irritable\":1,\"Alert\":0}","question_order":"[0,1,2,3]","trial_type":"survey-likert","trial_index":9,"time_elapsed":235453,"internal_node_id":"0.0-9.0"},{"rt":15774.194999830797,"responses":"{\"Ashamed\":1,\"Inspired\":3,\"Nervous\":2,\"Determined\":0}","question_order":"[0,1,2,3]","trial_type":"survey-likert","trial_index":10,"time_elapsed":251232,"internal_node_id":"0.0-10.0"},{"rt":36053.29499999061,"responses":"{\"Attentive\":3,\"Jittery\":2,\"Active\":3,\"Afraid\":1}","question_order":"[0,1,2,3]","trial_type":"survey-likert","trial_index":11,"time_elapsed":287289,"internal_node_id":"0.0-11.0"},{"rt":53082.44500006549,"responses":"{\"Q0\":0,\"Q1\":0,\"Q2\":1,\"Q3\":1}","question_order":"[0,1,2,3]","trial_type":"survey-likert","trial_index":12,"time_elapsed":340376,"internal_node_id":"0.0-12.0"},{"rt":43428.56500018388,"responses":"{\"Q0\":1,\"Q1\":1,\"Q2\":1,\"Q3\":0}","question_order":"[0,1,2,3]","trial_type":"survey-likert","trial_index":13,"time_elapsed":383809,"internal_node_id":"0.0-13.0"},{"rt":23097.79500006698,"responses":"{\"Q0\":1,\"Q1\":1,\"Q2\":1,\"Q3\":1}","question_order":"[0,1,2,3]","trial_type":"survey-likert","trial_index":14,"time_elapsed":406912,"internal_node_id":"0.0-14.0"},{"rt":18190.384999848902,"responses":"{\"Q0\":0,\"Q1\":1,\"Q2\":0}","question_order":"[0,1,2]","trial_type":"survey-likert","trial_index":15,"time_elapsed":425108,"internal_node_id":"0.0-15.0"},{"view_history":"[{\"page_index\":0,\"viewing_time\":7541.999999899417},{\"page_index\":1,\"viewing_time\":14079.045000020415},{\"page_index\":2,\"viewing_time\":11558.790000155568}]","rt":33180.140000069514,"trial_type":"instructions","trial_index":16,"time_elapsed":458294,"internal_node_id":"0.0-16.0"},{"rt":1694.914999883622,"stimulus":"<p>Choose a box,</p>","button_pressed":1,"trial_type":"html-button-response","trial_index":17,"time_elapsed":459991,"internal_node_id":"0.0-17.0-0.0"},{"rate":0.9509714067623104,"trial_type":"html-keyboard-response","trial_index":18,"time_elapsed":459991,"internal_node_id":"0.0-17.0-1.0"},{"rt":null,"stimulus":"<div style=\"background-color:#6dce98\"><h1 style=\"background-color:MediumSeaGreen\" >You won a prize! Well done!</h1><div style=\"background-color:#6dce98\"><h1 style=\"background-color:MediumSeaGreen\" >Only 19 left to go!</h1><img id=\"box\" src=\"img/prizes/ring.png\"></img><img id=\"box\" src=\"img/empty/greenopenbox.png\"></img></div>","key_press":null,"trial_type":"html-keyboard-response","trial_index":18,"time_elapsed":461499,"internal_node_id":"0.0-17.0-1.0"},{"rt":3751.814999850467,"stimulus":"<p>Choose a box,</p>","button_pressed":1,"trial_type":"html-button-response","trial_index":19,"time_elapsed":465253,"internal_node_id":"0.0-17.0-0.1"},{"rate":0.9509714067623104,"trial_type":"html-keyboard-response","trial_index":20,"time_elapsed":465253,"internal_node_id":"0.0-17.0-1.1"},{"rt":null,"stimulus":"<div style=\"background-color:#6dce98\"><h1 style=\"background-color:MediumSeaGreen\" >You won a prize! Well done!</h1><div style=\"background-color:#6dce98\"><h1 style=\"background-color:MediumSeaGreen\" >Only 18 left to go!</h1><img id=\"box\" src=\"img/prizes/choc.png\"></img><img id=\"box\" src=\"img/empty/greenopenbox.png\"></img></div>","key_press":null,"trial_type":"html-keyboard-response","trial_index":20,"time_elapsed":466761,"internal_node_id":"0.0-17.0-1.1"},{"rt":1068.944999948144,"stimulus":"<p>Choose a box,</p>","button_pressed":1,"trial_type":"html-button-response","trial_index":21,"time_elapsed":467832,"internal_node_id":"0.0-17.0-0.2"},{"rate":0.9509714067623104,"trial_type":"html-keyboard-response","trial_index":22,"time_elapsed":467832,"internal_node_id":"0.0-17.0-1.2"},{"rt":null,"stimulus":"<div style=\"background-color:#6dce98\"><h1 style=\"background-color:MediumSeaGreen\" >You won a prize! Well done!</h1><div style=\"background-color:#6dce98\"><h1 style=\"background-color:MediumSeaGreen\" >Only 17 left to go!</h1><img id=\"box\" src=\"img/prizes/ring.png\"></img><img id=\"box\" src=\"img/empty/greenopenbox.png\"></img></div>","key_press":null,"trial_type":"html-keyboard-response","trial_index":22,"time_elapsed":469334,"internal_node_id":"0.0-17.0-1.2"},{"view_history":"[{\"page_index\":0,\"viewing_time\":19857.17500001192}]","rt":19857.55000007339,"trial_type":"instructions","trial_index":23,"time_elapsed":489192,"internal_node_id":"0.0-18.0"},{"rt":1702.8799999970943,"stimulus":"<p>Choose a box,</p>","button_pressed":1,"trial_type":"html-button-response","trial_index":24,"time_elapsed":490898,"internal_node_id":"0.0-19.0-0.0"},{"rate":0.6164018069004547,"trial_type":"html-keyboard-response","trial_index":25,"time_elapsed":490898,"internal_node_id":"0.0-19.0-1.0"},{"rt":null,"stimulus":"<div style=\"background-color:#ff7157\"><h1 style=\"background-color:Tomato\">Bad luck! There was no prize in the box!</h1><h1 style=\"background-color:Tomato\">Remember, you need to keep going until you have 20 prizes!</h1><img id=\"box\" src=\"img/sad/greenopenboxsadthumb.png\"></img></div>","key_press":null,"trial_type":"html-keyboard-response","trial_index":25,"time_elapsed":492400,"internal_node_id":"0.0-19.0-1.0"},{"rt":2596.595000009984,"stimulus":"<p>Choose a box,</p>","button_pressed":1,"trial_type":"html-button-response","trial_index":26,"time_elapsed":494998,"internal_node_id":"0.0-19.1-0.1"},{"rate":0.6164018069004547,"trial_type":"html-keyboard-response","trial_index":27,"time_elapsed":494998,"internal_node_id":"0.0-19.1-1.1"},{"rt":null,"stimulus":"<div style=\"background-color:#ff7157\"><h1 style=\"background-color:Tomato\">Bad luck! There was no prize in the box!</h1><h1 style=\"background-color:Tomato\">Remember, you need to keep going until you have 20 prizes!</h1><img id=\"box\" src=\"img/sad/greenopenboxsadthumb.png\"></img></div>","key_press":null,"trial_type":"html-keyboard-response","trial_index":27,"time_elapsed":496499,"internal_node_id":"0.0-19.1-1.1"},{"rt":635.3599999565631,"stimulus":"<p>Choose a box,</p>","button_pressed":2,"trial_type":"html-button-response","trial_index":28,"time_elapsed":497136,"internal_node_id":"0.0-19.2-0.2"},{"rate":0.5104418439730574,"trial_type":"html-keyboard-response","trial_index":29,"time_elapsed":497136,"internal_node_id":"0.0-19.2-1.2"},{"rt":null,"stimulus":"<div style=\"background-color:#ff7157\"><h1 style=\"background-color:Tomato\">Bad luck! There was no prize in the box!</h1><h1 style=\"background-color:Tomato\">Remember, you need to keep going until you have 20 prizes!</h1><img id=\"box\" src=\"img/sad/purpleopenboxsadthumb.png\"></img></div>","key_press":null,"trial_type":"html-keyboard-response","trial_index":29,"time_elapsed":498637,"internal_node_id":"0.0-19.2-1.2"},{"rt":920.9099998697639,"stimulus":"<p>Choose a box,</p>","button_pressed":3,"trial_type":"html-button-response","trial_index":30,"time_elapsed":499560,"internal_node_id":"0.0-19.3-0.3"},{"rate":0.07736038131439466,"trial_type":"html-keyboard-response","trial_index":31,"time_elapsed":499560,"internal_node_id":"0.0-19.3-1.3"},{"rt":null,"stimulus":"<div style=\"background-color:#ff7157\"><h1 style=\"background-color:Tomato\">Bad luck! There was no prize in the box!</h1><h1 style=\"background-color:Tomato\">Remember, you need to keep going until you have 20 prizes!</h1><img id=\"box\" src=\"img/sad/redopenboxsadthumb.png\"></img></div>","key_press":null,"trial_type":"html-keyboard-response","trial_index":31,"time_elapsed":501062,"internal_node_id":"0.0-19.3-1.3"},{"rt":760.8250000048429,"stimulus":"<p>Choose a box,</p>","button_pressed":0,"trial_type":"html-button-response","trial_index":32,"time_elapsed":501824,"internal_node_id":"0.0-19.4-0.4"},{"rate":0.27019573145291076,"trial_type":"html-keyboard-response","trial_index":33,"time_elapsed":501825,"internal_node_id":"0.0-19.4-1.4"},{"rt":null,"stimulus":"<div style=\"background-color:#ff7157\"><h1 style=\"background-color:Tomato\">Bad luck! There was no prize in the box!</h1><h1 style=\"background-color:Tomato\">Remember, you need to keep going until you have 20 prizes!</h1><img id=\"box\" src=\"img/sad/blueopenboxsadthumb.png\"></img></div>","key_press":null,"trial_type":"html-keyboard-response","trial_index":33,"time_elapsed":503338,"internal_node_id":"0.0-19.4-1.4"},{"rt":1066.6099998634309,"stimulus":"<p>Choose a box,</p>","button_pressed":1,"trial_type":"html-button-response","trial_index":34,"time_elapsed":504407,"internal_node_id":"0.0-19.5-0.5"},{"rate":0.6164018069004547,"trial_type":"html-keyboard-response","trial_index":35,"time_elapsed":504407,"internal_node_id":"0.0-19.5-1.5"},{"rt":null,"stimulus":"<div style=\"background-color:#6dce98\"><h1 style=\"background-color:MediumSeaGreen\" >You won a prize! Well done!</h1><div style=\"background-color:#6dce98\"><h1 style=\"background-color:MediumSeaGreen\" >Only 19 left to go!</h1><img id=\"box\" src=\"img/prizes/bear.png\"></img><img id=\"box\" src=\"img/empty/greenopenbox.png\"></img></div>","key_press":null,"trial_type":"html-keyboard-response","trial_index":35,"time_elapsed":505922,"internal_node_id":"0.0-19.5-1.5"},{"rt":1436.035000020638,"stimulus":"<p>Choose a box,</p>","button_pressed":0,"trial_type":"html-button-response","trial_index":36,"time_elapsed":507359,"internal_node_id":"0.0-19.6-0.6"},{"rate":0.27019573145291076,"trial_type":"html-keyboard-response","trial_index":37,"time_elapsed":507360,"internal_node_id":"0.0-19.6-1.6"},{"rt":null,"stimulus":"<div style=\"background-color:#ff7157\"><h1 style=\"background-color:Tomato\">Bad luck! There was no prize in the box!</h1><h1 style=\"background-color:Tomato\">Remember, you need to keep going until you have 20 prizes!</h1><img id=\"box\" src=\"img/sad/blueopenboxsadthumb.png\"></img></div>","key_press":null,"trial_type":"html-keyboard-response","trial_index":37,"time_elapsed":508861,"internal_node_id":"0.0-19.6-1.6"},{"rt":858.8849999941885,"stimulus":"<p>Choose a box,</p>","button_pressed":2,"trial_type":"html-button-response","trial_index":38,"time_elapsed":509721,"internal_node_id":"0.0-19.7-0.7"},{"rate":0.5104418439730574,"trial_type":"html-keyboard-response","trial_index":39,"time_elapsed":509722,"internal_node_id":"0.0-19.7-1.7"},{"rt":null,"stimulus":"<div style=\"background-color:#ff7157\"><h1 style=\"background-color:Tomato\">Bad luck! There was no prize in the box!</h1><h1 style=\"background-color:Tomato\">Remember, you need to keep going until you have 20 prizes!</h1><img id=\"box\" src=\"img/sad/purpleopenboxsadthumb.png\"></img></div>","key_press":null,"trial_type":"html-keyboard-response","trial_index":39,"time_elapsed":511233,"internal_node_id":"0.0-19.7-1.7"},{"rt":561.9900000747293,"stimulus":"<p>Choose a box,</p>","button_pressed":1,"trial_type":"html-button-response","trial_index":40,"time_elapsed":511796,"internal_node_id":"0.0-19.8-0.8"},{"rate":0.6164018069004547,"trial_type":"html-keyboard-response","trial_index":41,"time_elapsed":511797,"internal_node_id":"0.0-19.8-1.8"},{"rt":null,"stimulus":"<div style=\"background-color:#6dce98\"><h1 style=\"background-color:MediumSeaGreen\" >You won a prize! Well done!</h1><div style=\"background-color:#6dce98\"><h1 style=\"background-color:MediumSeaGreen\" >Only 18 left to go!</h1><img id=\"box\" src=\"img/prizes/beachball.png\"></img><img id=\"box\" src=\"img/empty/greenopenbox.png\"></img></div>","key_press":null,"trial_type":"html-keyboard-response","trial_index":41,"time_elapsed":513311,"internal_node_id":"0.0-19.8-1.8"},{"rt":625.2550000790507,"stimulus":"<p>Choose a box,</p>","button_pressed":1,"trial_type":"html-button-response","trial_index":42,"time_elapsed":513939,"internal_node_id":"0.0-19.9-0.9"},{"rate":0.6164018069004547,"trial_type":"html-keyboard-response","trial_index":43,"time_elapsed":513939,"internal_node_id":"0.0-19.9-1.9"},{"rt":null,"stimulus":"<div style=\"background-color:#6dce98\"><h1 style=\"background-color:MediumSeaGreen\" >You won a prize! Well done!</h1><div style=\"background-color:#6dce98\"><h1 style=\"background-color:MediumSeaGreen\" >Only 17 left to go!</h1><img id=\"box\" src=\"img/prizes/ring.png\"></img><img id=\"box\" src=\"img/empty/greenopenbox.png\"></img></div>","key_press":null,"trial_type":"html-keyboard-response","trial_index":43,"time_elapsed":515441,"internal_node_id":"0.0-19.9-1.9"},{"rt":549.8199998401105,"stimulus":"<p>Choose a box,</p>","button_pressed":1,"trial_type":"html-button-response","trial_index":44,"time_elapsed":515992,"internal_node_id":"0.0-19.10-0.10"},{"rate":0.6164018069004547,"trial_type":"html-keyboard-response","trial_index":45,"time_elapsed":515992,"internal_node_id":"0.0-19.10-1.10"},{"rt":null,"stimulus":"<div style=\"background-color:#6dce98\"><h1 style=\"background-color:MediumSeaGreen\" >You won a prize! Well done!</h1><div style=\"background-color:#6dce98\"><h1 style=\"background-color:MediumSeaGreen\" >Only 16 left to go!</h1><img id=\"box\" src=\"img/prizes/duck.png\"></img><img id=\"box\" src=\"img/empty/greenopenbox.png\"></img></div>","key_press":null,"trial_type":"html-keyboard-response","trial_index":45,"time_elapsed":517507,"internal_node_id":"0.0-19.10-1.10"},{"rt":566.869999980554,"stimulus":"<p>Choose a box,</p>","button_pressed":1,"trial_type":"html-button-response","trial_index":46,"time_elapsed":518075,"internal_node_id":"0.0-19.11-0.11"},{"rate":0.6164018069004547,"trial_type":"html-keyboard-response","trial_index":47,"time_elapsed":518076,"internal_node_id":"0.0-19.11-1.11"},{"rt":null,"stimulus":"<div style=\"background-color:#ff7157\"><h1 style=\"background-color:Tomato\">Bad luck! There was no prize in the box!</h1><h1 style=\"background-color:Tomato\">Remember, you need to keep going until you have 20 prizes!</h1><img id=\"box\" src=\"img/sad/greenopenboxsadthumb.png\"></img></div>","key_press":null,"trial_type":"html-keyboard-response","trial_index":47,"time_elapsed":519583,"internal_node_id":"0.0-19.11-1.11"},{"rt":581.1400001402944,"stimulus":"<p>Choose a box,</p>","button_pressed":2,"trial_type":"html-button-response","trial_index":48,"time_elapsed":520165,"internal_node_id":"0.0-19.12-0.12"},{"rate":0.5104418439730574,"trial_type":"html-keyboard-response","trial_index":49,"time_elapsed":520166,"internal_node_id":"0.0-19.12-1.12"},{"rt":null,"stimulus":"<div style=\"background-color:#6dce98\"><h1 style=\"background-color:MediumSeaGreen\" >You won a prize! Well done!</h1><div style=\"background-color:#6dce98\"><h1 style=\"background-color:MediumSeaGreen\" >Only 15 left to go!</h1><img id=\"box\" src=\"img/prizes/ring.png\"></img><img id=\"box\" src=\"img/empty/purpleopenbox.png\"></img></div>","key_press":null,"trial_type":"html-keyboard-response","trial_index":49,"time_elapsed":521670,"internal_node_id":"0.0-19.12-1.12"},{"rt":377.26500001735985,"stimulus":"<p>Choose a box,</p>","button_pressed":2,"trial_type":"html-button-response","trial_index":50,"time_elapsed":522049,"internal_node_id":"0.0-19.13-0.13"},{"rate":0.5104418439730574,"trial_type":"html-keyboard-response","trial_index":51,"time_elapsed":522049,"internal_node_id":"0.0-19.13-1.13"},{"rt":null,"stimulus":"<div style=\"background-color:#6dce98\"><h1 style=\"background-color:MediumSeaGreen\" >You won a prize! Well done!</h1><div style=\"background-color:#6dce98\"><h1 style=\"background-color:MediumSeaGreen\" >Only 14 left to go!</h1><img id=\"box\" src=\"img/prizes/lolipop.png\"></img><img id=\"box\" src=\"img/empty/purpleopenbox.png\"></img></div>","key_press":null,"trial_type":"html-keyboard-response","trial_index":51,"time_elapsed":523558,"internal_node_id":"0.0-19.13-1.13"},{"rt":515.1299999561161,"stimulus":"<p>Choose a box,</p>","button_pressed":2,"trial_type":"html-button-response","trial_index":52,"time_elapsed":524075,"internal_node_id":"0.0-19.14-0.14"},{"rate":0.5104418439730574,"trial_type":"html-keyboard-response","trial_index":53,"time_elapsed":524075,"internal_node_id":"0.0-19.14-1.14"},{"rt":null,"stimulus":"<div style=\"background-color:#6dce98\"><h1 style=\"background-color:MediumSeaGreen\" >You won a prize! Well done!</h1><div style=\"background-color:#6dce98\"><h1 style=\"background-color:MediumSeaGreen\" >Only 13 left to go!</h1><img id=\"box\" src=\"img/prizes/yoyo.png\"></img><img id=\"box\" src=\"img/empty/purpleopenbox.png\"></img></div>","key_press":null,"trial_type":"html-keyboard-response","trial_index":53,"time_elapsed":525584,"internal_node_id":"0.0-19.14-1.14"},{"rt":598.3299999497831,"stimulus":"<p>Choose a box,</p>","button_pressed":2,"trial_type":"html-button-response","trial_index":54,"time_elapsed":526184,"internal_node_id":"0.0-19.15-0.15"},{"rate":0.5104418439730574,"trial_type":"html-keyboard-response","trial_index":55,"time_elapsed":526184,"internal_node_id":"0.0-19.15-1.15"},{"rt":null,"stimulus":"<div style=\"background-color:#ff7157\"><h1 style=\"background-color:Tomato\">Bad luck! There was no prize in the box!</h1><h1 style=\"background-color:Tomato\">Remember, you need to keep going until you have 20 prizes!</h1><img id=\"box\" src=\"img/sad/purpleopenboxsadthumb.png\"></img></div>","key_press":null,"trial_type":"html-keyboard-response","trial_index":55,"time_elapsed":527685,"internal_node_id":"0.0-19.15-1.15"},{"rt":742.1750000212342,"stimulus":"<p>Choose a box,</p>","button_pressed":3,"trial_type":"html-button-response","trial_index":56,"time_elapsed":528429,"internal_node_id":"0.0-19.16-0.16"},{"rate":0.07736038131439466,"trial_type":"html-keyboard-response","trial_index":57,"time_elapsed":528429,"internal_node_id":"0.0-19.16-1.16"},{"rt":null,"stimulus":"<div style=\"background-color:#ff7157\"><h1 style=\"background-color:Tomato\">Bad luck! There was no prize in the box!</h1><h1 style=\"background-color:Tomato\">Remember, you need to keep going until you have 20 prizes!</h1><img id=\"box\" src=\"img/sad/redopenboxsadthumb.png\"></img></div>","key_press":null,"trial_type":"html-keyboard-response","trial_index":57,"time_elapsed":529937,"internal_node_id":"0.0-19.16-1.16"},{"rt":791.2500000093132,"stimulus":"<p>Choose a box,</p>","button_pressed":1,"trial_type":"html-button-response","trial_index":58,"time_elapsed":530730,"internal_node_id":"0.0-19.17-0.17"},{"rate":0.6164018069004547,"trial_type":"html-keyboard-response","trial_index":59,"time_elapsed":530730,"internal_node_id":"0.0-19.17-1.17"},{"rt":null,"stimulus":"<div style=\"background-color:#6dce98\"><h1 style=\"background-color:MediumSeaGreen\" >You won a prize! Well done!</h1><div style=\"background-color:#6dce98\"><h1 style=\"background-color:MediumSeaGreen\" >Only 12 left to go!</h1><img id=\"box\" src=\"img/prizes/yoyo.png\"></img><img id=\"box\" src=\"img/empty/greenopenbox.png\"></img></div>","key_press":null,"trial_type":"html-keyboard-response","trial_index":59,"time_elapsed":532242,"internal_node_id":"0.0-19.17-1.17"},{"rt":546.0700001567602,"stimulus":"<p>Choose a box,</p>","button_pressed":1,"trial_type":"html-button-response","trial_index":60,"time_elapsed":532789,"internal_node_id":"0.0-19.18-0.18"},{"rate":0.6164018069004547,"trial_type":"html-keyboard-response","trial_index":61,"time_elapsed":532790,"internal_node_id":"0.0-19.18-1.18"},{"rt":null,"stimulus":"<div style=\"background-color:#6dce98\"><h1 style=\"background-color:MediumSeaGreen\" >You won a prize! Well done!</h1><div style=\"background-color:#6dce98\"><h1 style=\"background-color:MediumSeaGreen\" >Only 11 left to go!</h1><img id=\"box\" src=\"img/prizes/bear.png\"></img><img id=\"box\" src=\"img/empty/greenopenbox.png\"></img></div>","key_press":null,"trial_type":"html-keyboard-response","trial_index":61,"time_elapsed":534298,"internal_node_id":"0.0-19.18-1.18"},{"rt":928.3850002102554,"stimulus":"<p>Choose a box,</p>","button_pressed":1,"trial_type":"html-button-response","trial_index":62,"time_elapsed":535229,"internal_node_id":"0.0-19.19-0.19"},{"rate":0.6164018069004547,"trial_type":"html-keyboard-response","trial_index":63,"time_elapsed":535229,"internal_node_id":"0.0-19.19-1.19"},{"rt":null,"stimulus":"<div style=\"background-color:#ff7157\"><h1 style=\"background-color:Tomato\">Bad luck! There was no prize in the box!</h1><h1 style=\"background-color:Tomato\">Remember, you need to keep going until you have 20 prizes!</h1><img id=\"box\" src=\"img/sad/greenopenboxsadthumb.png\"></img></div>","key_press":null,"trial_type":"html-keyboard-response","trial_index":63,"time_elapsed":536731,"internal_node_id":"0.0-19.19-1.19"},{"rt":945.8599998615682,"stimulus":"<p>Choose a box,</p>","button_pressed":0,"trial_type":"html-button-response","trial_index":64,"time_elapsed":537678,"internal_node_id":"0.0-19.20-0.20"},{"rate":0.27019573145291076,"trial_type":"html-keyboard-response","trial_index":65,"time_elapsed":537678,"internal_node_id":"0.0-19.20-1.20"},{"rt":null,"stimulus":"<div style=\"background-color:#ff7157\"><h1 style=\"background-color:Tomato\">Bad luck! There was no prize in the box!</h1><h1 style=\"background-color:Tomato\">Remember, you need to keep going until you have 20 prizes!</h1><img id=\"box\" src=\"img/sad/blueopenboxsadthumb.png\"></img></div>","key_press":null,"trial_type":"html-keyboard-response","trial_index":65,"time_elapsed":539181,"internal_node_id":"0.0-19.20-1.20"},{"rt":436.3750000484288,"stimulus":"<p>Choose a box,</p>","button_pressed":2,"trial_type":"html-button-response","trial_index":66,"time_elapsed":539619,"internal_node_id":"0.0-19.21-0.21"},{"rate":0.5104418439730574,"trial_type":"html-keyboard-response","trial_index":67,"time_elapsed":539619,"internal_node_id":"0.0-19.21-1.21"},{"rt":null,"stimulus":"<div style=\"background-color:#ff7157\"><h1 style=\"background-color:Tomato\">Bad luck! There was no prize in the box!</h1><h1 style=\"background-color:Tomato\">Remember, you need to keep going until you have 20 prizes!</h1><img id=\"box\" src=\"img/sad/purpleopenboxsadthumb.png\"></img></div>","key_press":null,"trial_type":"html-keyboard-response","trial_index":67,"time_elapsed":541128,"internal_node_id":"0.0-19.21-1.21"},{"rt":388.9949999283999,"stimulus":"<p>Choose a box,</p>","button_pressed":3,"trial_type":"html-button-response","trial_index":68,"time_elapsed":541518,"internal_node_id":"0.0-19.22-0.22"},{"rate":0.07736038131439466,"trial_type":"html-keyboard-response","trial_index":69,"time_elapsed":541518,"internal_node_id":"0.0-19.22-1.22"},{"rt":null,"stimulus":"<div style=\"background-color:#ff7157\"><h1 style=\"background-color:Tomato\">Bad luck! There was no prize in the box!</h1><h1 style=\"background-color:Tomato\">Remember, you need to keep going until you have 20 prizes!</h1><img id=\"box\" src=\"img/sad/redopenboxsadthumb.png\"></img></div>","key_press":null,"trial_type":"html-keyboard-response","trial_index":69,"time_elapsed":543028,"internal_node_id":"0.0-19.22-1.22"},{"rt":530.0950000528246,"stimulus":"<p>Choose a box,</p>","button_pressed":1,"trial_type":"html-button-response","trial_index":70,"time_elapsed":543559,"internal_node_id":"0.0-19.23-0.23"},{"rate":0.6164018069004547,"trial_type":"html-keyboard-response","trial_index":71,"time_elapsed":543559,"internal_node_id":"0.0-19.23-1.23"},{"rt":null,"stimulus":"<div style=\"background-color:#6dce98\"><h1 style=\"background-color:MediumSeaGreen\" >You won a prize! Well done!</h1><div style=\"background-color:#6dce98\"><h1 style=\"background-color:MediumSeaGreen\" >Only 10 left to go!</h1><img id=\"box\" src=\"img/prizes/ring.png\"></img><img id=\"box\" src=\"img/empty/greenopenbox.png\"></img></div>","key_press":null,"trial_type":"html-keyboard-response","trial_index":71,"time_elapsed":545064,"internal_node_id":"0.0-19.23-1.23"},{"rt":929.3450000695884,"stimulus":"<p>Choose a box,</p>","button_pressed":1,"trial_type":"html-button-response","trial_index":72,"time_elapsed":545994,"internal_node_id":"0.0-19.24-0.24"},{"rate":0.6164018069004547,"trial_type":"html-keyboard-response","trial_index":73,"time_elapsed":545994,"internal_node_id":"0.0-19.24-1.24"},{"rt":null,"stimulus":"<div style=\"background-color:#6dce98\"><h1 style=\"background-color:MediumSeaGreen\" >You won a prize! Well done!</h1><div style=\"background-color:#6dce98\"><h1 style=\"background-color:MediumSeaGreen\" >Only 9 left to go!</h1><img id=\"box\" src=\"img/prizes/yoyo.png\"></img><img id=\"box\" src=\"img/empty/greenopenbox.png\"></img></div>","key_press":null,"trial_type":"html-keyboard-response","trial_index":73,"time_elapsed":547496,"internal_node_id":"0.0-19.24-1.24"},{"rt":464.35999986715615,"stimulus":"<p>Choose a box,</p>","button_pressed":1,"trial_type":"html-button-response","trial_index":74,"time_elapsed":547961,"internal_node_id":"0.0-19.25-0.25"},{"rate":0.6164018069004547,"trial_type":"html-keyboard-response","trial_index":75,"time_elapsed":547961,"internal_node_id":"0.0-19.25-1.25"},{"rt":null,"stimulus":"<div style=\"background-color:#6dce98\"><h1 style=\"background-color:MediumSeaGreen\" >You won a prize! Well done!</h1><div style=\"background-color:#6dce98\"><h1 style=\"background-color:MediumSeaGreen\" >Only 8 left to go!</h1><img id=\"box\" src=\"img/prizes/choc.png\"></img><img id=\"box\" src=\"img/empty/greenopenbox.png\"></img></div>","key_press":null,"trial_type":"html-keyboard-response","trial_index":75,"time_elapsed":549471,"internal_node_id":"0.0-19.25-1.25"},{"rt":298.95500000566244,"stimulus":"<p>Choose a box,</p>","button_pressed":1,"trial_type":"html-button-response","trial_index":76,"time_elapsed":549771,"internal_node_id":"0.0-19.26-0.26"},{"rate":0.6164018069004547,"trial_type":"html-keyboard-response","trial_index":77,"time_elapsed":549771,"internal_node_id":"0.0-19.26-1.26"},{"rt":null,"stimulus":"<div style=\"background-color:#6dce98\"><h1 style=\"background-color:MediumSeaGreen\" >You won a prize! Well done!</h1><div style=\"background-color:#6dce98\"><h1 style=\"background-color:MediumSeaGreen\" >Only 7 left to go!</h1><img id=\"box\" src=\"img/prizes/ring.png\"></img><img id=\"box\" src=\"img/empty/greenopenbox.png\"></img></div>","key_press":null,"trial_type":"html-keyboard-response","trial_index":77,"time_elapsed":551273,"internal_node_id":"0.0-19.26-1.26"},{"rt":560.8099999371916,"stimulus":"<p>Choose a box,</p>","button_pressed":1,"trial_type":"html-button-response","trial_index":78,"time_elapsed":551835,"internal_node_id":"0.0-19.27-0.27"},{"rate":0.6164018069004547,"trial_type":"html-keyboard-response","trial_index":79,"time_elapsed":551835,"internal_node_id":"0.0-19.27-1.27"},{"rt":null,"stimulus":"<div style=\"background-color:#6dce98\"><h1 style=\"background-color:MediumSeaGreen\" >You won a prize! Well done!</h1><div style=\"background-color:#6dce98\"><h1 style=\"background-color:MediumSeaGreen\" >Only 6 left to go!</h1><img id=\"box\" src=\"img/prizes/ring.png\"></img><img id=\"box\" src=\"img/empty/greenopenbox.png\"></img></div>","key_press":null,"trial_type":"html-keyboard-response","trial_index":79,"time_elapsed":553346,"internal_node_id":"0.0-19.27-1.27"},{"rt":376.0000001639128,"stimulus":"<p>Choose a box,</p>","button_pressed":1,"trial_type":"html-button-response","trial_index":80,"time_elapsed":553723,"internal_node_id":"0.0-19.28-0.28"},{"rate":0.6164018069004547,"trial_type":"html-keyboard-response","trial_index":81,"time_elapsed":553723,"internal_node_id":"0.0-19.28-1.28"},{"rt":null,"stimulus":"<div style=\"background-color:#ff7157\"><h1 style=\"background-color:Tomato\">Bad luck! There was no prize in the box!</h1><h1 style=\"background-color:Tomato\">Remember, you need to keep going until you have 20 prizes!</h1><img id=\"box\" src=\"img/sad/greenopenboxsadthumb.png\"></img></div>","key_press":null,"trial_type":"html-keyboard-response","trial_index":81,"time_elapsed":555224,"internal_node_id":"0.0-19.28-1.28"},{"rt":612.3150000348687,"stimulus":"<p>Choose a box,</p>","button_pressed":0,"trial_type":"html-button-response","trial_index":82,"time_elapsed":555838,"internal_node_id":"0.0-19.29-0.29"},{"rate":0.27019573145291076,"trial_type":"html-keyboard-response","trial_index":83,"time_elapsed":555838,"internal_node_id":"0.0-19.29-1.29"},{"rt":null,"stimulus":"<div style=\"background-color:#ff7157\"><h1 style=\"background-color:Tomato\">Bad luck! There was no prize in the box!</h1><h1 style=\"background-color:Tomato\">Remember, you need to keep going until you have 20 prizes!</h1><img id=\"box\" src=\"img/sad/blueopenboxsadthumb.png\"></img></div>","key_press":null,"trial_type":"html-keyboard-response","trial_index":83,"time_elapsed":557339,"internal_node_id":"0.0-19.29-1.29"},{"rt":1050.7300000172108,"stimulus":"<p>Choose a box,</p>","button_pressed":3,"trial_type":"html-button-response","trial_index":84,"time_elapsed":558391,"internal_node_id":"0.0-19.30-0.30"},{"rate":0.07736038131439466,"trial_type":"html-keyboard-response","trial_index":85,"time_elapsed":558391,"internal_node_id":"0.0-19.30-1.30"},{"rt":null,"stimulus":"<div style=\"background-color:#ff7157\"><h1 style=\"background-color:Tomato\">Bad luck! There was no prize in the box!</h1><h1 style=\"background-color:Tomato\">Remember, you need to keep going until you have 20 prizes!</h1><img id=\"box\" src=\"img/sad/redopenboxsadthumb.png\"></img></div>","key_press":null,"trial_type":"html-keyboard-response","trial_index":85,"time_elapsed":559892,"internal_node_id":"0.0-19.30-1.30"},{"rt":685.4900000616908,"stimulus":"<p>Choose a box,</p>","button_pressed":1,"trial_type":"html-button-response","trial_index":86,"time_elapsed":560579,"internal_node_id":"0.0-19.31-0.31"},{"rate":0.6164018069004547,"trial_type":"html-keyboard-response","trial_index":87,"time_elapsed":560579,"internal_node_id":"0.0-19.31-1.31"},{"rt":null,"stimulus":"<div style=\"background-color:#ff7157\"><h1 style=\"background-color:Tomato\">Bad luck! There was no prize in the box!</h1><h1 style=\"background-color:Tomato\">Remember, you need to keep going until you have 20 prizes!</h1><img id=\"box\" src=\"img/sad/greenopenboxsadthumb.png\"></img></div>","key_press":null,"trial_type":"html-keyboard-response","trial_index":87,"time_elapsed":562080,"internal_node_id":"0.0-19.31-1.31"},{"rt":353.05000003427267,"stimulus":"<p>Choose a box,</p>","button_pressed":2,"trial_type":"html-button-response","trial_index":88,"time_elapsed":562434,"internal_node_id":"0.0-19.32-0.32"},{"rate":0.5104418439730574,"trial_type":"html-keyboard-response","trial_index":89,"time_elapsed":562434,"internal_node_id":"0.0-19.32-1.32"},{"rt":null,"stimulus":"<div style=\"background-color:#ff7157\"><h1 style=\"background-color:Tomato\">Bad luck! There was no prize in the box!</h1><h1 style=\"background-color:Tomato\">Remember, you need to keep going until you have 20 prizes!</h1><img id=\"box\" src=\"img/sad/purpleopenboxsadthumb.png\"></img></div>","key_press":null,"trial_type":"html-keyboard-response","trial_index":89,"time_elapsed":563937,"internal_node_id":"0.0-19.32-1.32"},{"rt":736.6100000217557,"stimulus":"<p>Choose a box,</p>","button_pressed":0,"trial_type":"html-button-response","trial_index":90,"time_elapsed":564675,"internal_node_id":"0.0-19.33-0.33"},{"rate":0.27019573145291076,"trial_type":"html-keyboard-response","trial_index":91,"time_elapsed":564675,"internal_node_id":"0.0-19.33-1.33"},{"rt":null,"stimulus":"<div style=\"background-color:#6dce98\"><h1 style=\"background-color:MediumSeaGreen\" >You won a prize! Well done!</h1><div style=\"background-color:#6dce98\"><h1 style=\"background-color:MediumSeaGreen\" >Only 5 left to go!</h1><img id=\"box\" src=\"img/prizes/bear.png\"></img><img id=\"box\" src=\"img/empty/blueopenbox.png\"></img></div>","key_press":null,"trial_type":"html-keyboard-response","trial_index":91,"time_elapsed":566179,"internal_node_id":"0.0-19.33-1.33"},{"rt":695.2100000344217,"stimulus":"<p>Choose a box,</p>","button_pressed":0,"trial_type":"html-button-response","trial_index":92,"time_elapsed":566876,"internal_node_id":"0.0-19.34-0.34"},{"rate":0.27019573145291076,"trial_type":"html-keyboard-response","trial_index":93,"time_elapsed":566876,"internal_node_id":"0.0-19.34-1.34"},{"rt":null,"stimulus":"<div style=\"background-color:#6dce98\"><h1 style=\"background-color:MediumSeaGreen\" >You won a prize! Well done!</h1><div style=\"background-color:#6dce98\"><h1 style=\"background-color:MediumSeaGreen\" >Only 4 left to go!</h1><img id=\"box\" src=\"img/prizes/flowers.png\"></img><img id=\"box\" src=\"img/empty/blueopenbox.png\"></img></div>","key_press":null,"trial_type":"html-keyboard-response","trial_index":93,"time_elapsed":568389,"internal_node_id":"0.0-19.34-1.34"},{"rt":359.775000018999,"stimulus":"<p>Choose a box,</p>","button_pressed":0,"trial_type":"html-button-response","trial_index":94,"time_elapsed":568750,"internal_node_id":"0.0-19.35-0.35"},{"rate":0.27019573145291076,"trial_type":"html-keyboard-response","trial_index":95,"time_elapsed":568750,"internal_node_id":"0.0-19.35-1.35"},{"rt":null,"stimulus":"<div style=\"background-color:#ff7157\"><h1 style=\"background-color:Tomato\">Bad luck! There was no prize in the box!</h1><h1 style=\"background-color:Tomato\">Remember, you need to keep going until you have 20 prizes!</h1><img id=\"box\" src=\"img/sad/blueopenboxsadthumb.png\"></img></div>","key_press":null,"trial_type":"html-keyboard-response","trial_index":95,"time_elapsed":570252,"internal_node_id":"0.0-19.35-1.35"},{"rt":315.07500004954636,"stimulus":"<p>Choose a box,</p>","button_pressed":1,"trial_type":"html-button-response","trial_index":96,"time_elapsed":570568,"internal_node_id":"0.0-19.36-0.36"},{"rate":0.6164018069004547,"trial_type":"html-keyboard-response","trial_index":97,"time_elapsed":570569,"internal_node_id":"0.0-19.36-1.36"},{"rt":null,"stimulus":"<div style=\"background-color:#ff7157\"><h1 style=\"background-color:Tomato\">Bad luck! There was no prize in the box!</h1><h1 style=\"background-color:Tomato\">Remember, you need to keep going until you have 20 prizes!</h1><img id=\"box\" src=\"img/sad/greenopenboxsadthumb.png\"></img></div>","key_press":null,"trial_type":"html-keyboard-response","trial_index":97,"time_elapsed":572073,"internal_node_id":"0.0-19.36-1.36"},{"rt":345.3349999617785,"stimulus":"<p>Choose a box,</p>","button_pressed":2,"trial_type":"html-button-response","trial_index":98,"time_elapsed":572420,"internal_node_id":"0.0-19.37-0.37"},{"rate":0.5104418439730574,"trial_type":"html-keyboard-response","trial_index":99,"time_elapsed":572420,"internal_node_id":"0.0-19.37-1.37"},{"rt":null,"stimulus":"<div style=\"background-color:#ff7157\"><h1 style=\"background-color:Tomato\">Bad luck! There was no prize in the box!</h1><h1 style=\"background-color:Tomato\">Remember, you need to keep going until you have 20 prizes!</h1><img id=\"box\" src=\"img/sad/purpleopenboxsadthumb.png\"></img></div>","key_press":null,"trial_type":"html-keyboard-response","trial_index":99,"time_elapsed":573922,"internal_node_id":"0.0-19.37-1.37"},{"rt":497.59499984793365,"stimulus":"<p>Choose a box,</p>","button_pressed":3,"trial_type":"html-button-response","trial_index":100,"time_elapsed":574420,"internal_node_id":"0.0-19.38-0.38"},{"rate":0.07736038131439466,"trial_type":"html-keyboard-response","trial_index":101,"time_elapsed":574421,"internal_node_id":"0.0-19.38-1.38"},{"rt":null,"stimulus":"<div style=\"background-color:#ff7157\"><h1 style=\"background-color:Tomato\">Bad luck! There was no prize in the box!</h1><h1 style=\"background-color:Tomato\">Remember, you need to keep going until you have 20 prizes!</h1><img id=\"box\" src=\"img/sad/redopenboxsadthumb.png\"></img></div>","key_press":null,"trial_type":"html-keyboard-response","trial_index":101,"time_elapsed":575922,"internal_node_id":"0.0-19.38-1.38"},{"rt":361.6449998226017,"stimulus":"<p>Choose a box,</p>","button_pressed":0,"trial_type":"html-button-response","trial_index":102,"time_elapsed":576285,"internal_node_id":"0.0-19.39-0.39"},{"rate":0.27019573145291076,"trial_type":"html-keyboard-response","trial_index":103,"time_elapsed":576286,"internal_node_id":"0.0-19.39-1.39"},{"rt":null,"stimulus":"<div style=\"background-color:#ff7157\"><h1 style=\"background-color:Tomato\">Bad luck! There was no prize in the box!</h1><h1 style=\"background-color:Tomato\">Remember, you need to keep going until you have 20 prizes!</h1><img id=\"box\" src=\"img/sad/blueopenboxsadthumb.png\"></img></div>","key_press":null,"trial_type":"html-keyboard-response","trial_index":103,"time_elapsed":577795,"internal_node_id":"0.0-19.39-1.39"},{"rt":492.45000001974404,"stimulus":"<p>Choose a box,</p>","button_pressed":1,"trial_type":"html-button-response","trial_index":104,"time_elapsed":578289,"internal_node_id":"0.0-19.40-0.40"},{"rate":0.6164018069004547,"trial_type":"html-keyboard-response","trial_index":105,"time_elapsed":578289,"internal_node_id":"0.0-19.40-1.40"},{"rt":null,"stimulus":"<div style=\"background-color:#ff7157\"><h1 style=\"background-color:Tomato\">Bad luck! There was no prize in the box!</h1><h1 style=\"background-color:Tomato\">Remember, you need to keep going until you have 20 prizes!</h1><img id=\"box\" src=\"img/sad/greenopenboxsadthumb.png\"></img></div>","key_press":null,"trial_type":"html-keyboard-response","trial_index":105,"time_elapsed":579790,"internal_node_id":"0.0-19.40-1.40"},{"rt":1267.86999986507,"stimulus":"<p>Choose a box,</p>","button_pressed":0,"trial_type":"html-button-response","trial_index":106,"time_elapsed":581059,"internal_node_id":"0.0-19.41-0.41"},{"rate":0.27019573145291076,"trial_type":"html-keyboard-response","trial_index":107,"time_elapsed":581059,"internal_node_id":"0.0-19.41-1.41"},{"rt":null,"stimulus":"<div style=\"background-color:#ff7157\"><h1 style=\"background-color:Tomato\">Bad luck! There was no prize in the box!</h1><h1 style=\"background-color:Tomato\">Remember, you need to keep going until you have 20 prizes!</h1><img id=\"box\" src=\"img/sad/blueopenboxsadthumb.png\"></img></div>","key_press":null,"trial_type":"html-keyboard-response","trial_index":107,"time_elapsed":582564,"internal_node_id":"0.0-19.41-1.41"},{"rt":956.5300000831485,"stimulus":"<p>Choose a box,</p>","button_pressed":2,"trial_type":"html-button-response","trial_index":108,"time_elapsed":583522,"internal_node_id":"0.0-19.42-0.42"},{"rate":0.5104418439730574,"trial_type":"html-keyboard-response","trial_index":109,"time_elapsed":583522,"internal_node_id":"0.0-19.42-1.42"},{"rt":null,"stimulus":"<div style=\"background-color:#6dce98\"><h1 style=\"background-color:MediumSeaGreen\" >You won a prize! Well done!</h1><div style=\"background-color:#6dce98\"><h1 style=\"background-color:MediumSeaGreen\" >Only 3 left to go!</h1><img id=\"box\" src=\"img/prizes/flowers.png\"></img><img id=\"box\" src=\"img/empty/purpleopenbox.png\"></img></div>","key_press":null,"trial_type":"html-keyboard-response","trial_index":109,"time_elapsed":585038,"internal_node_id":"0.0-19.42-1.42"},{"rt":420.2400001231581,"stimulus":"<p>Choose a box,</p>","button_pressed":2,"trial_type":"html-button-response","trial_index":110,"time_elapsed":585460,"internal_node_id":"0.0-19.43-0.43"},{"rate":0.5104418439730574,"trial_type":"html-keyboard-response","trial_index":111,"time_elapsed":585460,"internal_node_id":"0.0-19.43-1.43"},{"rt":null,"stimulus":"<div style=\"background-color:#6dce98\"><h1 style=\"background-color:MediumSeaGreen\" >You won a prize! Well done!</h1><div style=\"background-color:#6dce98\"><h1 style=\"background-color:MediumSeaGreen\" >Only 2 left to go!</h1><img id=\"box\" src=\"img/prizes/flowers.png\"></img><img id=\"box\" src=\"img/empty/purpleopenbox.png\"></img></div>","key_press":null,"trial_type":"html-keyboard-response","trial_index":111,"time_elapsed":586968,"internal_node_id":"0.0-19.43-1.43"},{"rt":500.2349999267608,"stimulus":"<p>Choose a box,</p>","button_pressed":2,"trial_type":"html-button-response","trial_index":112,"time_elapsed":587469,"internal_node_id":"0.0-19.44-0.44"},{"rate":0.5104418439730574,"trial_type":"html-keyboard-response","trial_index":113,"time_elapsed":587470,"internal_node_id":"0.0-19.44-1.44"},{"rt":null,"stimulus":"<div style=\"background-color:#6dce98\"><h1 style=\"background-color:MediumSeaGreen\" >You won a prize! Well done!</h1><div style=\"background-color:#6dce98\"><h1 style=\"background-color:MediumSeaGreen\" >Only 1 left to go!</h1><img id=\"box\" src=\"img/prizes/duck.png\"></img><img id=\"box\" src=\"img/empty/purpleopenbox.png\"></img></div>","key_press":null,"trial_type":"html-keyboard-response","trial_index":113,"time_elapsed":588972,"internal_node_id":"0.0-19.44-1.44"},{"rt":575.7400000002235,"stimulus":"<p>Choose a box,</p>","button_pressed":2,"trial_type":"html-button-response","trial_index":114,"time_elapsed":589549,"internal_node_id":"0.0-19.45-0.45"},{"rate":0.5104418439730574,"trial_type":"html-keyboard-response","trial_index":115,"time_elapsed":589549,"internal_node_id":"0.0-19.45-1.45"},{"rt":null,"stimulus":"<div style=\"background-color:#ff7157\"><h1 style=\"background-color:Tomato\">Bad luck! There was no prize in the box!</h1><h1 style=\"background-color:Tomato\">Remember, you need to keep going until you have 20 prizes!</h1><img id=\"box\" src=\"img/sad/purpleopenboxsadthumb.png\"></img></div>","key_press":null,"trial_type":"html-keyboard-response","trial_index":115,"time_elapsed":591050,"internal_node_id":"0.0-19.45-1.45"},{"rt":682.6900001615286,"stimulus":"<p>Choose a box,</p>","button_pressed":3,"trial_type":"html-button-response","trial_index":116,"time_elapsed":591734,"internal_node_id":"0.0-19.46-0.46"},{"rate":0.07736038131439466,"trial_type":"html-keyboard-response","trial_index":117,"time_elapsed":591734,"internal_node_id":"0.0-19.46-1.46"},{"rt":null,"stimulus":"<div style=\"background-color:#ff7157\"><h1 style=\"background-color:Tomato\">Bad luck! There was no prize in the box!</h1><h1 style=\"background-color:Tomato\">Remember, you need to keep going until you have 20 prizes!</h1><img id=\"box\" src=\"img/sad/redopenboxsadthumb.png\"></img></div>","key_press":null,"trial_type":"html-keyboard-response","trial_index":117,"time_elapsed":593246,"internal_node_id":"0.0-19.46-1.46"},{"rt":616.2250000052154,"stimulus":"<p>Choose a box,</p>","button_pressed":2,"trial_type":"html-button-response","trial_index":118,"time_elapsed":593863,"internal_node_id":"0.0-19.47-0.47"},{"rate":0.5104418439730574,"trial_type":"html-keyboard-response","trial_index":119,"time_elapsed":593864,"internal_node_id":"0.0-19.47-1.47"},{"rt":null,"stimulus":"<div style=\"background-color:#6dce98\"><h1 style=\"background-color:MediumSeaGreen\" >You won a prize! Well done!</h1><div style=\"background-color:#6dce98\"><h1 style=\"background-color:MediumSeaGreen\" >Only 0 left to go!</h1><img id=\"box\" src=\"img/prizes/ring.png\"></img><img id=\"box\" src=\"img/empty/purpleopenbox.png\"></img></div>","key_press":null,"trial_type":"html-keyboard-response","trial_index":119,"time_elapsed":595378,"internal_node_id":"0.0-19.47-1.47"},{"rt":94094.94999982417,"responses":"{\"Q0\":\"I am not sure, what you can learn from this ;)\",\"Q1\":\"I think, often the box that ended giving prizes was 2 clicks later again the right box\"}","trial_type":"survey-text","trial_index":120,"time_elapsed":689483,"internal_node_id":"0.0-20.0"}]