[{"view_history":"[{\"page_index\":0,\"viewing_time\":2105.8849999681115},{\"page_index\":1,\"viewing_time\":1495.8650000626221},{\"page_index\":2,\"viewing_time\":2727.9299999354407},{\"page_index\":3,\"viewing_time\":1080.1650000503287},{\"page_index\":4,\"viewing_time\":2039.9250000482425},{\"page_index\":5,\"viewing_time\":2063.899999950081}]","rt":11514.285000041127,"trial_type":"instructions","trial_index":0,"time_elapsed":11518,"internal_node_id":"0.0-0.0"},{"rt":6182.524999952875,"responses":"{\"Q0\":\"Yes\",\"Q1\":\"Yes\",\"Q2\":\"Yes\"}","question_order":"[0,1,2]","trial_type":"survey-multi-choice","trial_index":1,"time_elapsed":17702,"internal_node_id":"0.0-1.0-0.0"},{"rt":7564.280000049621,"responses":"{\"Q0\":\"Yes\",\"Q1\":\"Yes\",\"Q2\":\"Yes\"}","question_order":"[0,1,2]","trial_type":"survey-multi-choice","trial_index":2,"time_elapsed":25270,"internal_node_id":"0.0-2.0-0.0"},{"rt":4490.834999945946,"responses":"{\"Q0\":\"5ed500da05bbbb048389cd9f\"}","trial_type":"survey-text","trial_index":3,"time_elapsed":29766,"internal_node_id":"0.0-3.0"},{"rt":3519.014999968931,"responses":"{\"Q0\":\"Male\",\"Q1\":\"18-25\"}","question_order":"[0,1]","trial_type":"survey-multi-choice","trial_index":4,"time_elapsed":33286,"internal_node_id":"0.0-4.0"},{"rt":2683.6500000208616,"responses":"{\"Q0\":\"\"}","trial_type":"survey-text","trial_index":5,"time_elapsed":35974,"internal_node_id":"0.0-5.0"},{"view_history":"[{\"page_index\":0,\"viewing_time\":2175.6449999520555}]","rt":2175.9049999527633,"trial_type":"instructions","trial_index":6,"time_elapsed":38150,"internal_node_id":"0.0-6.0"},{"rt":9287.204999942333,"responses":"{\"Interested\":2,\"Distressed\":3,\"Excited\":3,\"Upset\":3}","question_order":"[0,1,2,3]","trial_type":"survey-likert","trial_index":7,"time_elapsed":47439,"internal_node_id":"0.0-7.0"},{"rt":6899.964999989606,"responses":"{\"Strong\":1,\"Guilty\":2,\"Scared\":2,\"Hostile\":2}","question_order":"[0,1,2,3]","trial_type":"survey-likert","trial_index":8,"time_elapsed":54342,"internal_node_id":"0.0-8.0"},{"rt":7188.910000026226,"responses":"{\"Enthusiastic\":2,\"Proud\":1,\"Irritable\":3,\"Alert\":2}","question_order":"[0,1,2,3]","trial_type":"survey-likert","trial_index":9,"time_elapsed":61534,"internal_node_id":"0.0-9.0"},{"rt":5788.645000080578,"responses":"{\"Ashamed\":2,\"Inspired\":2,\"Nervous\":3,\"Determined\":2}","question_order":"[0,1,2,3]","trial_type":"survey-likert","trial_index":10,"time_elapsed":67326,"internal_node_id":"0.0-10.0"},{"rt":6716.76999994088,"responses":"{\"Attentive\":2,\"Jittery\":3,\"Active\":3,\"Afraid\":2}","question_order":"[0,1,2,3]","trial_type":"survey-likert","trial_index":11,"time_elapsed":74046,"internal_node_id":"0.0-11.0"},{"rt":19596.710000070743,"responses":"{\"Q0\":1,\"Q1\":1,\"Q2\":0,\"Q3\":2}","question_order":"[0,1,2,3]","trial_type":"survey-likert","trial_index":12,"time_elapsed":93646,"internal_node_id":"0.0-12.0"},{"rt":15524.440000066534,"responses":"{\"Q0\":1,\"Q1\":1,\"Q2\":2,\"Q3\":1}","question_order":"[0,1,2,3]","trial_type":"survey-likert","trial_index":13,"time_elapsed":109174,"internal_node_id":"0.0-13.0"},{"rt":11188.265000004321,"responses":"{\"Q0\":2,\"Q1\":1,\"Q2\":1,\"Q3\":1}","question_order":"[0,1,2,3]","trial_type":"survey-likert","trial_index":14,"time_elapsed":120366,"internal_node_id":"0.0-14.0"},{"rt":7772.289999993518,"responses":"{\"Q0\":1,\"Q1\":1,\"Q2\":1}","question_order":"[0,1,2]","trial_type":"survey-likert","trial_index":15,"time_elapsed":128142,"internal_node_id":"0.0-15.0"},{"view_history":"[{\"page_index\":0,\"viewing_time\":1482.3800000594929},{\"page_index\":1,\"viewing_time\":6543.989999918267},{\"page_index\":2,\"viewing_time\":7263.920000055805}]","rt":15290.500000002794,"trial_type":"instructions","trial_index":16,"time_elapsed":143437,"internal_node_id":"0.0-16.0"},{"rt":1742.8899999940768,"stimulus":"<p>Choose a box,</p>","button_pressed":3,"trial_type":"html-button-response","trial_index":17,"time_elapsed":145182,"internal_node_id":"0.0-17.0-0.0"},{"rate":0.7259775258210447,"trial_type":"html-keyboard-response","trial_index":18,"time_elapsed":145182,"internal_node_id":"0.0-17.0-1.0"},{"rt":null,"stimulus":"<div style=\"background-color:#6dce98\"><h1 style=\"background-color:MediumSeaGreen\" >You won a prize! Well done!</h1><div style=\"background-color:#6dce98\"><h1 style=\"background-color:MediumSeaGreen\" >Only 19 left to go!</h1><img id=\"box\" src=\"img/prizes/beachball.png\"></img><img id=\"box\" src=\"img/empty/redopenbox.png\"></img></div>","key_press":null,"trial_type":"html-keyboard-response","trial_index":18,"time_elapsed":146684,"internal_node_id":"0.0-17.0-1.0"},{"rt":1496.7349999351427,"stimulus":"<p>Choose a box,</p>","button_pressed":1,"trial_type":"html-button-response","trial_index":19,"time_elapsed":148182,"internal_node_id":"0.0-17.0-0.1"},{"rate":0.9153000989625215,"trial_type":"html-keyboard-response","trial_index":20,"time_elapsed":148182,"internal_node_id":"0.0-17.0-1.1"},{"rt":null,"stimulus":"<div style=\"background-color:#6dce98\"><h1 style=\"background-color:MediumSeaGreen\" >You won a prize! Well done!</h1><div style=\"background-color:#6dce98\"><h1 style=\"background-color:MediumSeaGreen\" >Only 18 left to go!</h1><img id=\"box\" src=\"img/prizes/duck.png\"></img><img id=\"box\" src=\"img/empty/greenopenbox.png\"></img></div>","key_press":null,"trial_type":"html-keyboard-response","trial_index":20,"time_elapsed":149683,"internal_node_id":"0.0-17.0-1.1"},{"rt":242.23500001244247,"stimulus":"<p>Choose a box,</p>","button_pressed":2,"trial_type":"html-button-response","trial_index":21,"time_elapsed":149926,"internal_node_id":"0.0-17.0-0.2"},{"rate":0.26322813704016923,"trial_type":"html-keyboard-response","trial_index":22,"time_elapsed":149926,"internal_node_id":"0.0-17.0-1.2"},{"rt":null,"stimulus":"<div style=\"background-color:#ff7157\"><h1 style=\"background-color:Tomato\">Bad luck! There was no prize in the box!</h1><h1 style=\"background-color:Tomato\">Remember, you need to keep going until you have 20 prizes!</h1><img id=\"box\" src=\"img/sad/purpleopenboxsadthumb.png\"></img></div>","key_press":null,"trial_type":"html-keyboard-response","trial_index":22,"time_elapsed":151427,"internal_node_id":"0.0-17.0-1.2"},{"view_history":"[{\"page_index\":0,\"viewing_time\":2680.7000000262633}]","rt":2680.9099999954924,"trial_type":"instructions","trial_index":23,"time_elapsed":154110,"internal_node_id":"0.0-18.0"},{"rt":1406.9100000197068,"stimulus":"<p>Choose a box,</p>","button_pressed":0,"trial_type":"html-button-response","trial_index":24,"time_elapsed":155518,"internal_node_id":"0.0-19.0-0.0"},{"rate":0.38726984966221806,"trial_type":"html-keyboard-response","trial_index":25,"time_elapsed":155518,"internal_node_id":"0.0-19.0-1.0"},{"rt":null,"stimulus":"<div style=\"background-color:#ff7157\"><h1 style=\"background-color:Tomato\">Bad luck! There was no prize in the box!</h1><h1 style=\"background-color:Tomato\">Remember, you need to keep going until you have 20 prizes!</h1><img id=\"box\" src=\"img/sad/blueopenboxsadthumb.png\"></img></div>","key_press":null,"trial_type":"html-keyboard-response","trial_index":25,"time_elapsed":157020,"internal_node_id":"0.0-19.0-1.0"},{"rt":960.2449999656528,"stimulus":"<p>Choose a box,</p>","button_pressed":1,"trial_type":"html-button-response","trial_index":26,"time_elapsed":157982,"internal_node_id":"0.0-19.1-0.1"},{"rate":0.1845438844094755,"trial_type":"html-keyboard-response","trial_index":27,"time_elapsed":157982,"internal_node_id":"0.0-19.1-1.1"},{"rt":null,"stimulus":"<div style=\"background-color:#ff7157\"><h1 style=\"background-color:Tomato\">Bad luck! There was no prize in the box!</h1><h1 style=\"background-color:Tomato\">Remember, you need to keep going until you have 20 prizes!</h1><img id=\"box\" src=\"img/sad/greenopenboxsadthumb.png\"></img></div>","key_press":null,"trial_type":"html-keyboard-response","trial_index":27,"time_elapsed":159483,"internal_node_id":"0.0-19.1-1.1"},{"rt":1329.6949999639764,"stimulus":"<p>Choose a box,</p>","button_pressed":3,"trial_type":"html-button-response","trial_index":28,"time_elapsed":160814,"internal_node_id":"0.0-19.2-0.2"},{"rate":0.285032818075425,"trial_type":"html-keyboard-response","trial_index":29,"time_elapsed":160814,"internal_node_id":"0.0-19.2-1.2"},{"rt":null,"stimulus":"<div style=\"background-color:#6dce98\"><h1 style=\"background-color:MediumSeaGreen\" >You won a prize! Well done!</h1><div style=\"background-color:#6dce98\"><h1 style=\"background-color:MediumSeaGreen\" >Only 19 left to go!</h1><img id=\"box\" src=\"img/prizes/beachball.png\"></img><img id=\"box\" src=\"img/empty/redopenbox.png\"></img></div>","key_press":null,"trial_type":"html-keyboard-response","trial_index":29,"time_elapsed":162316,"internal_node_id":"0.0-19.2-1.2"},{"rt":632.8750000102445,"stimulus":"<p>Choose a box,</p>","button_pressed":2,"trial_type":"html-button-response","trial_index":30,"time_elapsed":162950,"internal_node_id":"0.0-19.3-0.3"},{"rate":0.5651508522207693,"trial_type":"html-keyboard-response","trial_index":31,"time_elapsed":162950,"internal_node_id":"0.0-19.3-1.3"},{"rt":null,"stimulus":"<div style=\"background-color:#6dce98\"><h1 style=\"background-color:MediumSeaGreen\" >You won a prize! Well done!</h1><div style=\"background-color:#6dce98\"><h1 style=\"background-color:MediumSeaGreen\" >Only 18 left to go!</h1><img id=\"box\" src=\"img/prizes/coins.png\"></img><img id=\"box\" src=\"img/empty/purpleopenbox.png\"></img></div>","key_press":null,"trial_type":"html-keyboard-response","trial_index":31,"time_elapsed":164451,"internal_node_id":"0.0-19.3-1.3"},{"rt":753.9199999300763,"stimulus":"<p>Choose a box,</p>","button_pressed":3,"trial_type":"html-button-response","trial_index":32,"time_elapsed":165206,"internal_node_id":"0.0-19.4-0.4"},{"rate":0.285032818075425,"trial_type":"html-keyboard-response","trial_index":33,"time_elapsed":165206,"internal_node_id":"0.0-19.4-1.4"},{"rt":null,"stimulus":"<div style=\"background-color:#6dce98\"><h1 style=\"background-color:MediumSeaGreen\" >You won a prize! Well done!</h1><div style=\"background-color:#6dce98\"><h1 style=\"background-color:MediumSeaGreen\" >Only 17 left to go!</h1><img id=\"box\" src=\"img/prizes/yoyo.png\"></img><img id=\"box\" src=\"img/empty/redopenbox.png\"></img></div>","key_press":null,"trial_type":"html-keyboard-response","trial_index":33,"time_elapsed":166709,"internal_node_id":"0.0-19.4-1.4"},{"rt":479.7950000502169,"stimulus":"<p>Choose a box,</p>","button_pressed":2,"trial_type":"html-button-response","trial_index":34,"time_elapsed":167190,"internal_node_id":"0.0-19.5-0.5"},{"rate":0.5651508522207693,"trial_type":"html-keyboard-response","trial_index":35,"time_elapsed":167190,"internal_node_id":"0.0-19.5-1.5"},{"rt":null,"stimulus":"<div style=\"background-color:#6dce98\"><h1 style=\"background-color:MediumSeaGreen\" >You won a prize! Well done!</h1><div style=\"background-color:#6dce98\"><h1 style=\"background-color:MediumSeaGreen\" >Only 16 left to go!</h1><img id=\"box\" src=\"img/prizes/coins.png\"></img><img id=\"box\" src=\"img/empty/purpleopenbox.png\"></img></div>","key_press":null,"trial_type":"html-keyboard-response","trial_index":35,"time_elapsed":168692,"internal_node_id":"0.0-19.5-1.5"},{"rt":416.62999999243766,"stimulus":"<p>Choose a box,</p>","button_pressed":3,"trial_type":"html-button-response","trial_index":36,"time_elapsed":169110,"internal_node_id":"0.0-19.6-0.6"},{"rate":0.285032818075425,"trial_type":"html-keyboard-response","trial_index":37,"time_elapsed":169110,"internal_node_id":"0.0-19.6-1.6"},{"rt":null,"stimulus":"<div style=\"background-color:#ff7157\"><h1 style=\"background-color:Tomato\">Bad luck! There was no prize in the box!</h1><h1 style=\"background-color:Tomato\">Remember, you need to keep going until you have 20 prizes!</h1><img id=\"box\" src=\"img/sad/redopenboxsadthumb.png\"></img></div>","key_press":null,"trial_type":"html-keyboard-response","trial_index":37,"time_elapsed":170612,"internal_node_id":"0.0-19.6-1.6"},{"rt":400.9849999565631,"stimulus":"<p>Choose a box,</p>","button_pressed":2,"trial_type":"html-button-response","trial_index":38,"time_elapsed":171014,"internal_node_id":"0.0-19.7-0.7"},{"rate":0.5651508522207693,"trial_type":"html-keyboard-response","trial_index":39,"time_elapsed":171014,"internal_node_id":"0.0-19.7-1.7"},{"rt":null,"stimulus":"<div style=\"background-color:#6dce98\"><h1 style=\"background-color:MediumSeaGreen\" >You won a prize! Well done!</h1><div style=\"background-color:#6dce98\"><h1 style=\"background-color:MediumSeaGreen\" >Only 15 left to go!</h1><img id=\"box\" src=\"img/prizes/bear.png\"></img><img id=\"box\" src=\"img/empty/purpleopenbox.png\"></img></div>","key_press":null,"trial_type":"html-keyboard-response","trial_index":39,"time_elapsed":172516,"internal_node_id":"0.0-19.7-1.7"},{"rt":584.4750000396743,"stimulus":"<p>Choose a box,</p>","button_pressed":1,"trial_type":"html-button-response","trial_index":40,"time_elapsed":173101,"internal_node_id":"0.0-19.8-0.8"},{"rate":0.1845438844094755,"trial_type":"html-keyboard-response","trial_index":41,"time_elapsed":173102,"internal_node_id":"0.0-19.8-1.8"},{"rt":null,"stimulus":"<div style=\"background-color:#ff7157\"><h1 style=\"background-color:Tomato\">Bad luck! There was no prize in the box!</h1><h1 style=\"background-color:Tomato\">Remember, you need to keep going until you have 20 prizes!</h1><img id=\"box\" src=\"img/sad/greenopenboxsadthumb.png\"></img></div>","key_press":null,"trial_type":"html-keyboard-response","trial_index":41,"time_elapsed":174602,"internal_node_id":"0.0-19.8-1.8"},{"rt":666.2400000495836,"stimulus":"<p>Choose a box,</p>","button_pressed":0,"trial_type":"html-button-response","trial_index":42,"time_elapsed":175270,"internal_node_id":"0.0-19.9-0.9"},{"rate":0.38726984966221806,"trial_type":"html-keyboard-response","trial_index":43,"time_elapsed":175270,"internal_node_id":"0.0-19.9-1.9"},{"rt":null,"stimulus":"<div style=\"background-color:#ff7157\"><h1 style=\"background-color:Tomato\">Bad luck! There was no prize in the box!</h1><h1 style=\"background-color:Tomato\">Remember, you need to keep going until you have 20 prizes!</h1><img id=\"box\" src=\"img/sad/blueopenboxsadthumb.png\"></img></div>","key_press":null,"trial_type":"html-keyboard-response","trial_index":43,"time_elapsed":176771,"internal_node_id":"0.0-19.9-1.9"},{"rt":1233.4349999437109,"stimulus":"<p>Choose a box,</p>","button_pressed":2,"trial_type":"html-button-response","trial_index":44,"time_elapsed":178006,"internal_node_id":"0.0-19.10-0.10"},{"rate":0.5651508522207693,"trial_type":"html-keyboard-response","trial_index":45,"time_elapsed":178006,"internal_node_id":"0.0-19.10-1.10"},{"rt":null,"stimulus":"<div style=\"background-color:#6dce98\"><h1 style=\"background-color:MediumSeaGreen\" >You won a prize! Well done!</h1><div style=\"background-color:#6dce98\"><h1 style=\"background-color:MediumSeaGreen\" >Only 14 left to go!</h1><img id=\"box\" src=\"img/prizes/choc.png\"></img><img id=\"box\" src=\"img/empty/purpleopenbox.png\"></img></div>","key_press":null,"trial_type":"html-keyboard-response","trial_index":45,"time_elapsed":179509,"internal_node_id":"0.0-19.10-1.10"},{"rt":679.9149999860674,"stimulus":"<p>Choose a box,</p>","button_pressed":3,"trial_type":"html-button-response","trial_index":46,"time_elapsed":180190,"internal_node_id":"0.0-19.11-0.11"},{"rate":0.285032818075425,"trial_type":"html-keyboard-response","trial_index":47,"time_elapsed":180190,"internal_node_id":"0.0-19.11-1.11"},{"rt":null,"stimulus":"<div style=\"background-color:#ff7157\"><h1 style=\"background-color:Tomato\">Bad luck! There was no prize in the box!</h1><h1 style=\"background-color:Tomato\">Remember, you need to keep going until you have 20 prizes!</h1><img id=\"box\" src=\"img/sad/redopenboxsadthumb.png\"></img></div>","key_press":null,"trial_type":"html-keyboard-response","trial_index":47,"time_elapsed":181691,"internal_node_id":"0.0-19.11-1.11"},{"rt":1825.5699999863282,"stimulus":"<p>Choose a box,</p>","button_pressed":1,"trial_type":"html-button-response","trial_index":48,"time_elapsed":183518,"internal_node_id":"0.0-19.12-0.12"},{"rate":0.1845438844094755,"trial_type":"html-keyboard-response","trial_index":49,"time_elapsed":183518,"internal_node_id":"0.0-19.12-1.12"},{"rt":null,"stimulus":"<div style=\"background-color:#ff7157\"><h1 style=\"background-color:Tomato\">Bad luck! There was no prize in the box!</h1><h1 style=\"background-color:Tomato\">Remember, you need to keep going until you have 20 prizes!</h1><img id=\"box\" src=\"img/sad/greenopenboxsadthumb.png\"></img></div>","key_press":null,"trial_type":"html-keyboard-response","trial_index":49,"time_elapsed":185020,"internal_node_id":"0.0-19.12-1.12"},{"rt":2545.170000055805,"stimulus":"<p>Choose a box,</p>","button_pressed":2,"trial_type":"html-button-response","trial_index":50,"time_elapsed":187566,"internal_node_id":"0.0-19.13-0.13"},{"rate":0.5651508522207693,"trial_type":"html-keyboard-response","trial_index":51,"time_elapsed":187566,"internal_node_id":"0.0-19.13-1.13"},{"rt":null,"stimulus":"<div style=\"background-color:#ff7157\"><h1 style=\"background-color:Tomato\">Bad luck! There was no prize in the box!</h1><h1 style=\"background-color:Tomato\">Remember, you need to keep going until you have 20 prizes!</h1><img id=\"box\" src=\"img/sad/purpleopenboxsadthumb.png\"></img></div>","key_press":null,"trial_type":"html-keyboard-response","trial_index":51,"time_elapsed":189067,"internal_node_id":"0.0-19.13-1.13"},{"rt":521.7900000279769,"stimulus":"<p>Choose a box,</p>","button_pressed":1,"trial_type":"html-button-response","trial_index":52,"time_elapsed":189590,"internal_node_id":"0.0-19.14-0.14"},{"rate":0.1845438844094755,"trial_type":"html-keyboard-response","trial_index":53,"time_elapsed":189590,"internal_node_id":"0.0-19.14-1.14"},{"rt":null,"stimulus":"<div style=\"background-color:#ff7157\"><h1 style=\"background-color:Tomato\">Bad luck! There was no prize in the box!</h1><h1 style=\"background-color:Tomato\">Remember, you need to keep going until you have 20 prizes!</h1><img id=\"box\" src=\"img/sad/greenopenboxsadthumb.png\"></img></div>","key_press":null,"trial_type":"html-keyboard-response","trial_index":53,"time_elapsed":191091,"internal_node_id":"0.0-19.14-1.14"},{"rt":1129.190000006929,"stimulus":"<p>Choose a box,</p>","button_pressed":0,"trial_type":"html-button-response","trial_index":54,"time_elapsed":192222,"internal_node_id":"0.0-19.15-0.15"},{"rate":0.38726984966221806,"trial_type":"html-keyboard-response","trial_index":55,"time_elapsed":192222,"internal_node_id":"0.0-19.15-1.15"},{"rt":null,"stimulus":"<div style=\"background-color:#6dce98\"><h1 style=\"background-color:MediumSeaGreen\" >You won a prize! Well done!</h1><div style=\"background-color:#6dce98\"><h1 style=\"background-color:MediumSeaGreen\" >Only 13 left to go!</h1><img id=\"box\" src=\"img/prizes/ring.png\"></img><img id=\"box\" src=\"img/empty/blueopenbox.png\"></img></div>","key_press":null,"trial_type":"html-keyboard-response","trial_index":55,"time_elapsed":193723,"internal_node_id":"0.0-19.15-1.15"},{"rt":1289.0149999875575,"stimulus":"<p>Choose a box,</p>","button_pressed":0,"trial_type":"html-button-response","trial_index":56,"time_elapsed":195013,"internal_node_id":"0.0-19.16-0.16"},{"rate":0.38726984966221806,"trial_type":"html-keyboard-response","trial_index":57,"time_elapsed":195014,"internal_node_id":"0.0-19.16-1.16"},{"rt":null,"stimulus":"<div style=\"background-color:#6dce98\"><h1 style=\"background-color:MediumSeaGreen\" >You won a prize! Well done!</h1><div style=\"background-color:#6dce98\"><h1 style=\"background-color:MediumSeaGreen\" >Only 12 left to go!</h1><img id=\"box\" src=\"img/prizes/flowers.png\"></img><img id=\"box\" src=\"img/empty/blueopenbox.png\"></img></div>","key_press":null,"trial_type":"html-keyboard-response","trial_index":57,"time_elapsed":196515,"internal_node_id":"0.0-19.16-1.16"},{"rt":585.4050000198185,"stimulus":"<p>Choose a box,</p>","button_pressed":0,"trial_type":"html-button-response","trial_index":58,"time_elapsed":197101,"internal_node_id":"0.0-19.17-0.17"},{"rate":0.38726984966221806,"trial_type":"html-keyboard-response","trial_index":59,"time_elapsed":197102,"internal_node_id":"0.0-19.17-1.17"},{"rt":null,"stimulus":"<div style=\"background-color:#ff7157\"><h1 style=\"background-color:Tomato\">Bad luck! There was no prize in the box!</h1><h1 style=\"background-color:Tomato\">Remember, you need to keep going until you have 20 prizes!</h1><img id=\"box\" src=\"img/sad/blueopenboxsadthumb.png\"></img></div>","key_press":null,"trial_type":"html-keyboard-response","trial_index":59,"time_elapsed":198603,"internal_node_id":"0.0-19.17-1.17"},{"rt":625.5400000372902,"stimulus":"<p>Choose a box,</p>","button_pressed":3,"trial_type":"html-button-response","trial_index":60,"time_elapsed":199230,"internal_node_id":"0.0-19.18-0.18"},{"rate":0.285032818075425,"trial_type":"html-keyboard-response","trial_index":61,"time_elapsed":199230,"internal_node_id":"0.0-19.18-1.18"},{"rt":null,"stimulus":"<div style=\"background-color:#6dce98\"><h1 style=\"background-color:MediumSeaGreen\" >You won a prize! Well done!</h1><div style=\"background-color:#6dce98\"><h1 style=\"background-color:MediumSeaGreen\" >Only 11 left to go!</h1><img id=\"box\" src=\"img/prizes/yoyo.png\"></img><img id=\"box\" src=\"img/empty/redopenbox.png\"></img></div>","key_press":null,"trial_type":"html-keyboard-response","trial_index":61,"time_elapsed":200731,"internal_node_id":"0.0-19.18-1.18"},{"rt":1033.04999996908,"stimulus":"<p>Choose a box,</p>","button_pressed":3,"trial_type":"html-button-response","trial_index":62,"time_elapsed":201766,"internal_node_id":"0.0-19.19-0.19"},{"rate":0.285032818075425,"trial_type":"html-keyboard-response","trial_index":63,"time_elapsed":201766,"internal_node_id":"0.0-19.19-1.19"},{"rt":null,"stimulus":"<div style=\"background-color:#6dce98\"><h1 style=\"background-color:MediumSeaGreen\" >You won a prize! Well done!</h1><div style=\"background-color:#6dce98\"><h1 style=\"background-color:MediumSeaGreen\" >Only 10 left to go!</h1><img id=\"box\" src=\"img/prizes/beachball.png\"></img><img id=\"box\" src=\"img/empty/redopenbox.png\"></img></div>","key_press":null,"trial_type":"html-keyboard-response","trial_index":63,"time_elapsed":203267,"internal_node_id":"0.0-19.19-1.19"},{"rt":1017.2599999932572,"stimulus":"<p>Choose a box,</p>","button_pressed":3,"trial_type":"html-button-response","trial_index":64,"time_elapsed":204286,"internal_node_id":"0.0-19.20-0.20"},{"rate":0.285032818075425,"trial_type":"html-keyboard-response","trial_index":65,"time_elapsed":204286,"internal_node_id":"0.0-19.20-1.20"},{"rt":null,"stimulus":"<div style=\"background-color:#6dce98\"><h1 style=\"background-color:MediumSeaGreen\" >You won a prize! Well done!</h1><div style=\"background-color:#6dce98\"><h1 style=\"background-color:MediumSeaGreen\" >Only 9 left to go!</h1><img id=\"box\" src=\"img/prizes/ring.png\"></img><img id=\"box\" src=\"img/empty/redopenbox.png\"></img></div>","key_press":null,"trial_type":"html-keyboard-response","trial_index":65,"time_elapsed":205787,"internal_node_id":"0.0-19.20-1.20"},{"rt":657.7699999324977,"stimulus":"<p>Choose a box,</p>","button_pressed":3,"trial_type":"html-button-response","trial_index":66,"time_elapsed":206446,"internal_node_id":"0.0-19.21-0.21"},{"rate":0.285032818075425,"trial_type":"html-keyboard-response","trial_index":67,"time_elapsed":206446,"internal_node_id":"0.0-19.21-1.21"},{"rt":null,"stimulus":"<div style=\"background-color:#ff7157\"><h1 style=\"background-color:Tomato\">Bad luck! There was no prize in the box!</h1><h1 style=\"background-color:Tomato\">Remember, you need to keep going until you have 20 prizes!</h1><img id=\"box\" src=\"img/sad/redopenboxsadthumb.png\"></img></div>","key_press":null,"trial_type":"html-keyboard-response","trial_index":67,"time_elapsed":207947,"internal_node_id":"0.0-19.21-1.21"},{"rt":1297.7849999442697,"stimulus":"<p>Choose a box,</p>","button_pressed":2,"trial_type":"html-button-response","trial_index":68,"time_elapsed":209246,"internal_node_id":"0.0-19.22-0.22"},{"rate":0.5651508522207693,"trial_type":"html-keyboard-response","trial_index":69,"time_elapsed":209246,"internal_node_id":"0.0-19.22-1.22"},{"rt":null,"stimulus":"<div style=\"background-color:#6dce98\"><h1 style=\"background-color:MediumSeaGreen\" >You won a prize! Well done!</h1><div style=\"background-color:#6dce98\"><h1 style=\"background-color:MediumSeaGreen\" >Only 8 left to go!</h1><img id=\"box\" src=\"img/prizes/yoyo.png\"></img><img id=\"box\" src=\"img/empty/purpleopenbox.png\"></img></div>","key_press":null,"trial_type":"html-keyboard-response","trial_index":69,"time_elapsed":210747,"internal_node_id":"0.0-19.22-1.22"},{"rt":929.0549999568611,"stimulus":"<p>Choose a box,</p>","button_pressed":1,"trial_type":"html-button-response","trial_index":70,"time_elapsed":211678,"internal_node_id":"0.0-19.23-0.23"},{"rate":0.1845438844094755,"trial_type":"html-keyboard-response","trial_index":71,"time_elapsed":211679,"internal_node_id":"0.0-19.23-1.23"},{"rt":null,"stimulus":"<div style=\"background-color:#ff7157\"><h1 style=\"background-color:Tomato\">Bad luck! There was no prize in the box!</h1><h1 style=\"background-color:Tomato\">Remember, you need to keep going until you have 20 prizes!</h1><img id=\"box\" src=\"img/sad/greenopenboxsadthumb.png\"></img></div>","key_press":null,"trial_type":"html-keyboard-response","trial_index":71,"time_elapsed":213180,"internal_node_id":"0.0-19.23-1.23"},{"rt":4272.750000003725,"stimulus":"<p>Choose a box,</p>","button_pressed":1,"trial_type":"html-button-response","trial_index":72,"time_elapsed":217454,"internal_node_id":"0.0-19.24-0.24"},{"rate":0.1845438844094755,"trial_type":"html-keyboard-response","trial_index":73,"time_elapsed":217454,"internal_node_id":"0.0-19.24-1.24"},{"rt":null,"stimulus":"<div style=\"background-color:#ff7157\"><h1 style=\"background-color:Tomato\">Bad luck! There was no prize in the box!</h1><h1 style=\"background-color:Tomato\">Remember, you need to keep going until you have 20 prizes!</h1><img id=\"box\" src=\"img/sad/greenopenboxsadthumb.png\"></img></div>","key_press":null,"trial_type":"html-keyboard-response","trial_index":73,"time_elapsed":218955,"internal_node_id":"0.0-19.24-1.24"},{"rt":769.4700000574812,"stimulus":"<p>Choose a box,</p>","button_pressed":2,"trial_type":"html-button-response","trial_index":74,"time_elapsed":219726,"internal_node_id":"0.0-19.25-0.25"},{"rate":0.5651508522207693,"trial_type":"html-keyboard-response","trial_index":75,"time_elapsed":219726,"internal_node_id":"0.0-19.25-1.25"},{"rt":null,"stimulus":"<div style=\"background-color:#ff7157\"><h1 style=\"background-color:Tomato\">Bad luck! There was no prize in the box!</h1><h1 style=\"background-color:Tomato\">Remember, you need to keep going until you have 20 prizes!</h1><img id=\"box\" src=\"img/sad/purpleopenboxsadthumb.png\"></img></div>","key_press":null,"trial_type":"html-keyboard-response","trial_index":75,"time_elapsed":221227,"internal_node_id":"0.0-19.25-1.25"},{"rt":873.3900000806898,"stimulus":"<p>Choose a box,</p>","button_pressed":3,"trial_type":"html-button-response","trial_index":76,"time_elapsed":222102,"internal_node_id":"0.0-19.26-0.26"},{"rate":0.285032818075425,"trial_type":"html-keyboard-response","trial_index":77,"time_elapsed":222102,"internal_node_id":"0.0-19.26-1.26"},{"rt":null,"stimulus":"<div style=\"background-color:#ff7157\"><h1 style=\"background-color:Tomato\">Bad luck! There was no prize in the box!</h1><h1 style=\"background-color:Tomato\">Remember, you need to keep going until you have 20 prizes!</h1><img id=\"box\" src=\"img/sad/redopenboxsadthumb.png\"></img></div>","key_press":null,"trial_type":"html-keyboard-response","trial_index":77,"time_elapsed":223603,"internal_node_id":"0.0-19.26-1.26"},{"rt":609.8200000124052,"stimulus":"<p>Choose a box,</p>","button_pressed":0,"trial_type":"html-button-response","trial_index":78,"time_elapsed":224213,"internal_node_id":"0.0-19.27-0.27"},{"rate":0.38726984966221806,"trial_type":"html-keyboard-response","trial_index":79,"time_elapsed":224214,"internal_node_id":"0.0-19.27-1.27"},{"rt":null,"stimulus":"<div style=\"background-color:#6dce98\"><h1 style=\"background-color:MediumSeaGreen\" >You won a prize! Well done!</h1><div style=\"background-color:#6dce98\"><h1 style=\"background-color:MediumSeaGreen\" >Only 7 left to go!</h1><img id=\"box\" src=\"img/prizes/beachball.png\"></img><img id=\"box\" src=\"img/empty/blueopenbox.png\"></img></div>","key_press":null,"trial_type":"html-keyboard-response","trial_index":79,"time_elapsed":225715,"internal_node_id":"0.0-19.27-1.27"},{"rt":1201.7300000879914,"stimulus":"<p>Choose a box,</p>","button_pressed":1,"trial_type":"html-button-response","trial_index":80,"time_elapsed":226918,"internal_node_id":"0.0-19.28-0.28"},{"rate":0.1845438844094755,"trial_type":"html-keyboard-response","trial_index":81,"time_elapsed":226918,"internal_node_id":"0.0-19.28-1.28"},{"rt":null,"stimulus":"<div style=\"background-color:#ff7157\"><h1 style=\"background-color:Tomato\">Bad luck! There was no prize in the box!</h1><h1 style=\"background-color:Tomato\">Remember, you need to keep going until you have 20 prizes!</h1><img id=\"box\" src=\"img/sad/greenopenboxsadthumb.png\"></img></div>","key_press":null,"trial_type":"html-keyboard-response","trial_index":81,"time_elapsed":228419,"internal_node_id":"0.0-19.28-1.28"},{"rt":786.155000096187,"stimulus":"<p>Choose a box,</p>","button_pressed":0,"trial_type":"html-button-response","trial_index":82,"time_elapsed":229206,"internal_node_id":"0.0-19.29-0.29"},{"rate":0.38726984966221806,"trial_type":"html-keyboard-response","trial_index":83,"time_elapsed":229206,"internal_node_id":"0.0-19.29-1.29"},{"rt":null,"stimulus":"<div style=\"background-color:#ff7157\"><h1 style=\"background-color:Tomato\">Bad luck! There was no prize in the box!</h1><h1 style=\"background-color:Tomato\">Remember, you need to keep going until you have 20 prizes!</h1><img id=\"box\" src=\"img/sad/blueopenboxsadthumb.png\"></img></div>","key_press":null,"trial_type":"html-keyboard-response","trial_index":83,"time_elapsed":230707,"internal_node_id":"0.0-19.29-1.29"},{"rt":1146.0800000932068,"stimulus":"<p>Choose a box,</p>","button_pressed":3,"trial_type":"html-button-response","trial_index":84,"time_elapsed":231854,"internal_node_id":"0.0-19.30-0.30"},{"rate":0.285032818075425,"trial_type":"html-keyboard-response","trial_index":85,"time_elapsed":231854,"internal_node_id":"0.0-19.30-1.30"},{"rt":null,"stimulus":"<div style=\"background-color:#ff7157\"><h1 style=\"background-color:Tomato\">Bad luck! There was no prize in the box!</h1><h1 style=\"background-color:Tomato\">Remember, you need to keep going until you have 20 prizes!</h1><img id=\"box\" src=\"img/sad/redopenboxsadthumb.png\"></img></div>","key_press":null,"trial_type":"html-keyboard-response","trial_index":85,"time_elapsed":233355,"internal_node_id":"0.0-19.30-1.30"},{"rt":977.6350000174716,"stimulus":"<p>Choose a box,</p>","button_pressed":2,"trial_type":"html-button-response","trial_index":86,"time_elapsed":234334,"internal_node_id":"0.0-19.31-0.31"},{"rate":0.5651508522207693,"trial_type":"html-keyboard-response","trial_index":87,"time_elapsed":234334,"internal_node_id":"0.0-19.31-1.31"},{"rt":null,"stimulus":"<div style=\"background-color:#ff7157\"><h1 style=\"background-color:Tomato\">Bad luck! There was no prize in the box!</h1><h1 style=\"background-color:Tomato\">Remember, you need to keep going until you have 20 prizes!</h1><img id=\"box\" src=\"img/sad/purpleopenboxsadthumb.png\"></img></div>","key_press":null,"trial_type":"html-keyboard-response","trial_index":87,"time_elapsed":235835,"internal_node_id":"0.0-19.31-1.31"},{"rt":625.9350000182167,"stimulus":"<p>Choose a box,</p>","button_pressed":1,"trial_type":"html-button-response","trial_index":88,"time_elapsed":236462,"internal_node_id":"0.0-19.32-0.32"},{"rate":0.1845438844094755,"trial_type":"html-keyboard-response","trial_index":89,"time_elapsed":236462,"internal_node_id":"0.0-19.32-1.32"},{"rt":null,"stimulus":"<div style=\"background-color:#ff7157\"><h1 style=\"background-color:Tomato\">Bad luck! There was no prize in the box!</h1><h1 style=\"background-color:Tomato\">Remember, you need to keep going until you have 20 prizes!</h1><img id=\"box\" src=\"img/sad/greenopenboxsadthumb.png\"></img></div>","key_press":null,"trial_type":"html-keyboard-response","trial_index":89,"time_elapsed":237963,"internal_node_id":"0.0-19.32-1.32"},{"rt":777.5399999227375,"stimulus":"<p>Choose a box,</p>","button_pressed":0,"trial_type":"html-button-response","trial_index":90,"time_elapsed":238742,"internal_node_id":"0.0-19.33-0.33"},{"rate":0.38726984966221806,"trial_type":"html-keyboard-response","trial_index":91,"time_elapsed":238742,"internal_node_id":"0.0-19.33-1.33"},{"rt":null,"stimulus":"<div style=\"background-color:#6dce98\"><h1 style=\"background-color:MediumSeaGreen\" >You won a prize! Well done!</h1><div style=\"background-color:#6dce98\"><h1 style=\"background-color:MediumSeaGreen\" >Only 6 left to go!</h1><img id=\"box\" src=\"img/prizes/bear.png\"></img><img id=\"box\" src=\"img/empty/blueopenbox.png\"></img></div>","key_press":null,"trial_type":"html-keyboard-response","trial_index":91,"time_elapsed":240244,"internal_node_id":"0.0-19.33-1.33"},{"rt":721.2649999419227,"stimulus":"<p>Choose a box,</p>","button_pressed":0,"trial_type":"html-button-response","trial_index":92,"time_elapsed":240966,"internal_node_id":"0.0-19.34-0.34"},{"rate":0.38726984966221806,"trial_type":"html-keyboard-response","trial_index":93,"time_elapsed":240966,"internal_node_id":"0.0-19.34-1.34"},{"rt":null,"stimulus":"<div style=\"background-color:#ff7157\"><h1 style=\"background-color:Tomato\">Bad luck! There was no prize in the box!</h1><h1 style=\"background-color:Tomato\">Remember, you need to keep going until you have 20 prizes!</h1><img id=\"box\" src=\"img/sad/blueopenboxsadthumb.png\"></img></div>","key_press":null,"trial_type":"html-keyboard-response","trial_index":93,"time_elapsed":242467,"internal_node_id":"0.0-19.34-1.34"},{"rt":681.3100000144914,"stimulus":"<p>Choose a box,</p>","button_pressed":1,"trial_type":"html-button-response","trial_index":94,"time_elapsed":243150,"internal_node_id":"0.0-19.35-0.35"},{"rate":0.1845438844094755,"trial_type":"html-keyboard-response","trial_index":95,"time_elapsed":243150,"internal_node_id":"0.0-19.35-1.35"},{"rt":null,"stimulus":"<div style=\"background-color:#ff7157\"><h1 style=\"background-color:Tomato\">Bad luck! There was no prize in the box!</h1><h1 style=\"background-color:Tomato\">Remember, you need to keep going until you have 20 prizes!</h1><img id=\"box\" src=\"img/sad/greenopenboxsadthumb.png\"></img></div>","key_press":null,"trial_type":"html-keyboard-response","trial_index":95,"time_elapsed":244652,"internal_node_id":"0.0-19.35-1.35"},{"rt":784.7849999088794,"stimulus":"<p>Choose a box,</p>","button_pressed":2,"trial_type":"html-button-response","trial_index":96,"time_elapsed":245438,"internal_node_id":"0.0-19.36-0.36"},{"rate":0.5651508522207693,"trial_type":"html-keyboard-response","trial_index":97,"time_elapsed":245438,"internal_node_id":"0.0-19.36-1.36"},{"rt":null,"stimulus":"<div style=\"background-color:#ff7157\"><h1 style=\"background-color:Tomato\">Bad luck! There was no prize in the box!</h1><h1 style=\"background-color:Tomato\">Remember, you need to keep going until you have 20 prizes!</h1><img id=\"box\" src=\"img/sad/purpleopenboxsadthumb.png\"></img></div>","key_press":null,"trial_type":"html-keyboard-response","trial_index":97,"time_elapsed":246939,"internal_node_id":"0.0-19.36-1.36"},{"rt":641.5900000138208,"stimulus":"<p>Choose a box,</p>","button_pressed":3,"trial_type":"html-button-response","trial_index":98,"time_elapsed":247582,"internal_node_id":"0.0-19.37-0.37"},{"rate":0.285032818075425,"trial_type":"html-keyboard-response","trial_index":99,"time_elapsed":247582,"internal_node_id":"0.0-19.37-1.37"},{"rt":null,"stimulus":"<div style=\"background-color:#ff7157\"><h1 style=\"background-color:Tomato\">Bad luck! There was no prize in the box!</h1><h1 style=\"background-color:Tomato\">Remember, you need to keep going until you have 20 prizes!</h1><img id=\"box\" src=\"img/sad/redopenboxsadthumb.png\"></img></div>","key_press":null,"trial_type":"html-keyboard-response","trial_index":99,"time_elapsed":249083,"internal_node_id":"0.0-19.37-1.37"},{"rt":689.4399999873713,"stimulus":"<p>Choose a box,</p>","button_pressed":1,"trial_type":"html-button-response","trial_index":100,"time_elapsed":249774,"internal_node_id":"0.0-19.38-0.38"},{"rate":0.1845438844094755,"trial_type":"html-keyboard-response","trial_index":101,"time_elapsed":249774,"internal_node_id":"0.0-19.38-1.38"},{"rt":null,"stimulus":"<div style=\"background-color:#ff7157\"><h1 style=\"background-color:Tomato\">Bad luck! There was no prize in the box!</h1><h1 style=\"background-color:Tomato\">Remember, you need to keep going until you have 20 prizes!</h1><img id=\"box\" src=\"img/sad/greenopenboxsadthumb.png\"></img></div>","key_press":null,"trial_type":"html-keyboard-response","trial_index":101,"time_elapsed":251276,"internal_node_id":"0.0-19.38-1.38"},{"rt":528.3749999944121,"stimulus":"<p>Choose a box,</p>","button_pressed":0,"trial_type":"html-button-response","trial_index":102,"time_elapsed":251806,"internal_node_id":"0.0-19.39-0.39"},{"rate":0.38726984966221806,"trial_type":"html-keyboard-response","trial_index":103,"time_elapsed":251806,"internal_node_id":"0.0-19.39-1.39"},{"rt":null,"stimulus":"<div style=\"background-color:#ff7157\"><h1 style=\"background-color:Tomato\">Bad luck! There was no prize in the box!</h1><h1 style=\"background-color:Tomato\">Remember, you need to keep going until you have 20 prizes!</h1><img id=\"box\" src=\"img/sad/blueopenboxsadthumb.png\"></img></div>","key_press":null,"trial_type":"html-keyboard-response","trial_index":103,"time_elapsed":253307,"internal_node_id":"0.0-19.39-1.39"},{"rt":425.9950000559911,"stimulus":"<p>Choose a box,</p>","button_pressed":0,"trial_type":"html-button-response","trial_index":104,"time_elapsed":253734,"internal_node_id":"0.0-19.40-0.40"},{"rate":0.38726984966221806,"trial_type":"html-keyboard-response","trial_index":105,"time_elapsed":253734,"internal_node_id":"0.0-19.40-1.40"},{"rt":null,"stimulus":"<div style=\"background-color:#6dce98\"><h1 style=\"background-color:MediumSeaGreen\" >You won a prize! Well done!</h1><div style=\"background-color:#6dce98\"><h1 style=\"background-color:MediumSeaGreen\" >Only 5 left to go!</h1><img id=\"box\" src=\"img/prizes/yoyo.png\"></img><img id=\"box\" src=\"img/empty/blueopenbox.png\"></img></div>","key_press":null,"trial_type":"html-keyboard-response","trial_index":105,"time_elapsed":255235,"internal_node_id":"0.0-19.40-1.40"},{"rt":305.51999993622303,"stimulus":"<p>Choose a box,</p>","button_pressed":0,"trial_type":"html-button-response","trial_index":106,"time_elapsed":255542,"internal_node_id":"0.0-19.41-0.41"},{"rate":0.38726984966221806,"trial_type":"html-keyboard-response","trial_index":107,"time_elapsed":255542,"internal_node_id":"0.0-19.41-1.41"},{"rt":null,"stimulus":"<div style=\"background-color:#6dce98\"><h1 style=\"background-color:MediumSeaGreen\" >You won a prize! Well done!</h1><div style=\"background-color:#6dce98\"><h1 style=\"background-color:MediumSeaGreen\" >Only 4 left to go!</h1><img id=\"box\" src=\"img/prizes/flowers.png\"></img><img id=\"box\" src=\"img/empty/blueopenbox.png\"></img></div>","key_press":null,"trial_type":"html-keyboard-response","trial_index":107,"time_elapsed":257044,"internal_node_id":"0.0-19.41-1.41"},{"rt":384.8650000290945,"stimulus":"<p>Choose a box,</p>","button_pressed":0,"trial_type":"html-button-response","trial_index":108,"time_elapsed":257430,"internal_node_id":"0.0-19.42-0.42"},{"rate":0.38726984966221806,"trial_type":"html-keyboard-response","trial_index":109,"time_elapsed":257430,"internal_node_id":"0.0-19.42-1.42"},{"rt":null,"stimulus":"<div style=\"background-color:#6dce98\"><h1 style=\"background-color:MediumSeaGreen\" >You won a prize! Well done!</h1><div style=\"background-color:#6dce98\"><h1 style=\"background-color:MediumSeaGreen\" >Only 3 left to go!</h1><img id=\"box\" src=\"img/prizes/beachball.png\"></img><img id=\"box\" src=\"img/empty/blueopenbox.png\"></img></div>","key_press":null,"trial_type":"html-keyboard-response","trial_index":109,"time_elapsed":258932,"internal_node_id":"0.0-19.42-1.42"},{"rt":328.3349999692291,"stimulus":"<p>Choose a box,</p>","button_pressed":0,"trial_type":"html-button-response","trial_index":110,"time_elapsed":259262,"internal_node_id":"0.0-19.43-0.43"},{"rate":0.38726984966221806,"trial_type":"html-keyboard-response","trial_index":111,"time_elapsed":259262,"internal_node_id":"0.0-19.43-1.43"},{"rt":null,"stimulus":"<div style=\"background-color:#ff7157\"><h1 style=\"background-color:Tomato\">Bad luck! There was no prize in the box!</h1><h1 style=\"background-color:Tomato\">Remember, you need to keep going until you have 20 prizes!</h1><img id=\"box\" src=\"img/sad/blueopenboxsadthumb.png\"></img></div>","key_press":null,"trial_type":"html-keyboard-response","trial_index":111,"time_elapsed":260763,"internal_node_id":"0.0-19.43-1.43"},{"rt":697.6549999089912,"stimulus":"<p>Choose a box,</p>","button_pressed":1,"trial_type":"html-button-response","trial_index":112,"time_elapsed":261462,"internal_node_id":"0.0-19.44-0.44"},{"rate":0.1845438844094755,"trial_type":"html-keyboard-response","trial_index":113,"time_elapsed":261462,"internal_node_id":"0.0-19.44-1.44"},{"rt":null,"stimulus":"<div style=\"background-color:#ff7157\"><h1 style=\"background-color:Tomato\">Bad luck! There was no prize in the box!</h1><h1 style=\"background-color:Tomato\">Remember, you need to keep going until you have 20 prizes!</h1><img id=\"box\" src=\"img/sad/greenopenboxsadthumb.png\"></img></div>","key_press":null,"trial_type":"html-keyboard-response","trial_index":113,"time_elapsed":262963,"internal_node_id":"0.0-19.44-1.44"},{"rt":721.2999999755993,"stimulus":"<p>Choose a box,</p>","button_pressed":0,"trial_type":"html-button-response","trial_index":114,"time_elapsed":263686,"internal_node_id":"0.0-19.45-0.45"},{"rate":0.38726984966221806,"trial_type":"html-keyboard-response","trial_index":115,"time_elapsed":263686,"internal_node_id":"0.0-19.45-1.45"},{"rt":null,"stimulus":"<div style=\"background-color:#ff7157\"><h1 style=\"background-color:Tomato\">Bad luck! There was no prize in the box!</h1><h1 style=\"background-color:Tomato\">Remember, you need to keep going until you have 20 prizes!</h1><img id=\"box\" src=\"img/sad/blueopenboxsadthumb.png\"></img></div>","key_press":null,"trial_type":"html-keyboard-response","trial_index":115,"time_elapsed":265187,"internal_node_id":"0.0-19.45-1.45"},{"rt":778.3200000412762,"stimulus":"<p>Choose a box,</p>","button_pressed":2,"trial_type":"html-button-response","trial_index":116,"time_elapsed":265966,"internal_node_id":"0.0-19.46-0.46"},{"rate":0.5651508522207693,"trial_type":"html-keyboard-response","trial_index":117,"time_elapsed":265966,"internal_node_id":"0.0-19.46-1.46"},{"rt":null,"stimulus":"<div style=\"background-color:#6dce98\"><h1 style=\"background-color:MediumSeaGreen\" >You won a prize! Well done!</h1><div style=\"background-color:#6dce98\"><h1 style=\"background-color:MediumSeaGreen\" >Only 2 left to go!</h1><img id=\"box\" src=\"img/prizes/choc.png\"></img><img id=\"box\" src=\"img/empty/purpleopenbox.png\"></img></div>","key_press":null,"trial_type":"html-keyboard-response","trial_index":117,"time_elapsed":267468,"internal_node_id":"0.0-19.46-1.46"},{"rt":641.0700000124052,"stimulus":"<p>Choose a box,</p>","button_pressed":2,"trial_type":"html-button-response","trial_index":118,"time_elapsed":268110,"internal_node_id":"0.0-19.47-0.47"},{"rate":0.5651508522207693,"trial_type":"html-keyboard-response","trial_index":119,"time_elapsed":268110,"internal_node_id":"0.0-19.47-1.47"},{"rt":null,"stimulus":"<div style=\"background-color:#6dce98\"><h1 style=\"background-color:MediumSeaGreen\" >You won a prize! Well done!</h1><div style=\"background-color:#6dce98\"><h1 style=\"background-color:MediumSeaGreen\" >Only 1 left to go!</h1><img id=\"box\" src=\"img/prizes/yoyo.png\"></img><img id=\"box\" src=\"img/empty/purpleopenbox.png\"></img></div>","key_press":null,"trial_type":"html-keyboard-response","trial_index":119,"time_elapsed":269611,"internal_node_id":"0.0-19.47-1.47"},{"rt":449.81499994173646,"stimulus":"<p>Choose a box,</p>","button_pressed":2,"trial_type":"html-button-response","trial_index":120,"time_elapsed":270062,"internal_node_id":"0.0-19.48-0.48"},{"rate":0.5651508522207693,"trial_type":"html-keyboard-response","trial_index":121,"time_elapsed":270062,"internal_node_id":"0.0-19.48-1.48"},{"rt":null,"stimulus":"<div style=\"background-color:#6dce98\"><h1 style=\"background-color:MediumSeaGreen\" >You won a prize! Well done!</h1><div style=\"background-color:#6dce98\"><h1 style=\"background-color:MediumSeaGreen\" >Only 0 left to go!</h1><img id=\"box\" src=\"img/prizes/ring.png\"></img><img id=\"box\" src=\"img/empty/purpleopenbox.png\"></img></div>","key_press":null,"trial_type":"html-keyboard-response","trial_index":121,"time_elapsed":271564,"internal_node_id":"0.0-19.48-1.48"},{"rt":74115.6600000104,"responses":"{\"Q0\":\"\",\"Q1\":\"I picked at random. If one failed i picked another box.\"}","trial_type":"survey-text","trial_index":122,"time_elapsed":345686,"internal_node_id":"0.0-20.0"}]