[{"view_history":"[{\"page_index\":0,\"viewing_time\":1263.2299999240786},{\"page_index\":1,\"viewing_time\":436.930000083521},{\"page_index\":2,\"viewing_time\":729.8349998891354},{\"page_index\":3,\"viewing_time\":942.6150000654161},{\"page_index\":4,\"viewing_time\":599.4250000221655},{\"page_index\":5,\"viewing_time\":1024.074999964796}]","rt":4996.805000002496,"trial_type":"instructions","trial_index":0,"time_elapsed":5008,"internal_node_id":"0.0-0.0"},{"rt":3144.8099999688566,"responses":"{\"Q0\":\"Yes\",\"Q1\":\"Yes\",\"Q2\":\"Yes\"}","question_order":"[0,1,2]","trial_type":"survey-multi-choice","trial_index":1,"time_elapsed":8156,"internal_node_id":"0.0-1.0-0.0"},{"rt":3254.6650000149384,"responses":"{\"Q0\":\"Yes\",\"Q1\":\"Yes\",\"Q2\":\"Yes\"}","question_order":"[0,1,2]","trial_type":"survey-multi-choice","trial_index":2,"time_elapsed":11416,"internal_node_id":"0.0-2.0-0.0"},{"rt":2433.2900000736117,"responses":"{\"Q0\":\"http://www.choicetask.com/roshan/mab/\"}","trial_type":"survey-text","trial_index":3,"time_elapsed":13856,"internal_node_id":"0.0-3.0"},{"rt":2774.5600000489503,"responses":"{\"Q0\":\"Female\",\"Q1\":\"18-25\"}","question_order":"[0,1]","trial_type":"survey-multi-choice","trial_index":4,"time_elapsed":16632,"internal_node_id":"0.0-4.0"},{"rt":4498.505000025034,"responses":"{\"Q0\":\"\"}","trial_type":"survey-text","trial_index":5,"time_elapsed":21136,"internal_node_id":"0.0-5.0"},{"view_history":"[{\"page_index\":0,\"viewing_time\":3740.845000022091}]","rt":3741.095000063069,"trial_type":"instructions","trial_index":6,"time_elapsed":24879,"internal_node_id":"0.0-6.0"},{"rt":8866.314999992028,"responses":"{\"Interested\":2,\"Distressed\":3,\"Excited\":1,\"Upset\":3}","question_order":"[0,1,2,3]","trial_type":"survey-likert","trial_index":7,"time_elapsed":33748,"internal_node_id":"0.0-7.0"},{"rt":8791.1600000225,"responses":"{\"Strong\":1,\"Guilty\":3,\"Scared\":3,\"Hostile\":1}","question_order":"[0,1,2,3]","trial_type":"survey-likert","trial_index":8,"time_elapsed":42545,"internal_node_id":"0.0-8.0"},{"rt":10966.849999967963,"responses":"{\"Enthusiastic\":2,\"Proud\":1,\"Irritable\":3,\"Alert\":3}","question_order":"[0,1,2,3]","trial_type":"survey-likert","trial_index":9,"time_elapsed":53520,"internal_node_id":"0.0-9.0"},{"rt":13731.389999971725,"responses":"{\"Ashamed\":2,\"Inspired\":1,\"Nervous\":3,\"Determined\":1}","question_order":"[0,1,2,3]","trial_type":"survey-likert","trial_index":10,"time_elapsed":67256,"internal_node_id":"0.0-10.0"},{"rt":11634.990000049584,"responses":"{\"Attentive\":1,\"Jittery\":3,\"Active\":3,\"Afraid\":1}","question_order":"[0,1,2,3]","trial_type":"survey-likert","trial_index":11,"time_elapsed":78896,"internal_node_id":"0.0-11.0"},{"rt":21504.86000010278,"responses":"{\"Q0\":1,\"Q1\":1,\"Q2\":0,\"Q3\":2}","question_order":"[0,1,2,3]","trial_type":"survey-likert","trial_index":12,"time_elapsed":100406,"internal_node_id":"0.0-12.0"},{"rt":19562.814999953844,"responses":"{\"Q0\":0,\"Q1\":1,\"Q2\":2,\"Q3\":1}","question_order":"[0,1,2,3]","trial_type":"survey-likert","trial_index":13,"time_elapsed":119976,"internal_node_id":"0.0-13.0"},{"rt":20806.86000001151,"responses":"{\"Q0\":2,\"Q1\":1,\"Q2\":1,\"Q3\":1}","question_order":"[0,1,2,3]","trial_type":"survey-likert","trial_index":14,"time_elapsed":140788,"internal_node_id":"0.0-14.0"},{"rt":8752.319999970496,"responses":"{\"Q0\":0,\"Q1\":2,\"Q2\":1}","question_order":"[0,1,2]","trial_type":"survey-likert","trial_index":15,"time_elapsed":149546,"internal_node_id":"0.0-15.0"},{"view_history":"[{\"page_index\":0,\"viewing_time\":1299.155000015162},{\"page_index\":1,\"viewing_time\":4287.894999957643},{\"page_index\":2,\"viewing_time\":9800.080000073649}]","rt":15387.364999973215,"trial_type":"instructions","trial_index":16,"time_elapsed":164951,"internal_node_id":"0.0-16.0"},{"rt":1361.464999965392,"stimulus":"<p>Choose a box,</p>","button_pressed":1,"trial_type":"html-button-response","trial_index":17,"time_elapsed":166316,"internal_node_id":"0.0-17.0-0.0"},{"rate":0.6065349472394199,"trial_type":"html-keyboard-response","trial_index":18,"time_elapsed":166316,"internal_node_id":"0.0-17.0-1.0"},{"rt":null,"stimulus":"<div style=\"background-color:#6dce98\"><h1 style=\"background-color:MediumSeaGreen\" >You won a prize! Well done!</h1><div style=\"background-color:#6dce98\"><h1 style=\"background-color:MediumSeaGreen\" >Only 19 left to go!</h1><img id=\"box\" src=\"img/prizes/bear.png\"></img><img id=\"box\" src=\"img/empty/greenopenbox.png\"></img></div>","key_press":null,"trial_type":"html-keyboard-response","trial_index":18,"time_elapsed":167819,"internal_node_id":"0.0-17.0-1.0"},{"rt":817.4700000090525,"stimulus":"<p>Choose a box,</p>","button_pressed":1,"trial_type":"html-button-response","trial_index":19,"time_elapsed":168639,"internal_node_id":"0.0-17.0-0.1"},{"rate":0.6065349472394199,"trial_type":"html-keyboard-response","trial_index":20,"time_elapsed":168639,"internal_node_id":"0.0-17.0-1.1"},{"rt":null,"stimulus":"<div style=\"background-color:#6dce98\"><h1 style=\"background-color:MediumSeaGreen\" >You won a prize! Well done!</h1><div style=\"background-color:#6dce98\"><h1 style=\"background-color:MediumSeaGreen\" >Only 18 left to go!</h1><img id=\"box\" src=\"img/prizes/beachball.png\"></img><img id=\"box\" src=\"img/empty/greenopenbox.png\"></img></div>","key_press":null,"trial_type":"html-keyboard-response","trial_index":20,"time_elapsed":170144,"internal_node_id":"0.0-17.0-1.1"},{"rt":701.5649999957532,"stimulus":"<p>Choose a box,</p>","button_pressed":1,"trial_type":"html-button-response","trial_index":21,"time_elapsed":170848,"internal_node_id":"0.0-17.0-0.2"},{"rate":0.6065349472394199,"trial_type":"html-keyboard-response","trial_index":22,"time_elapsed":170848,"internal_node_id":"0.0-17.0-1.2"},{"rt":null,"stimulus":"<div style=\"background-color:#ff7157\"><h1 style=\"background-color:Tomato\">Bad luck! There was no prize in the box!</h1><h1 style=\"background-color:Tomato\">Remember, you need to keep going until you have 20 prizes!</h1><img id=\"box\" src=\"img/sad/greenopenboxsadthumb.png\"></img></div>","key_press":null,"trial_type":"html-keyboard-response","trial_index":22,"time_elapsed":172352,"internal_node_id":"0.0-17.0-1.2"},{"view_history":"[{\"page_index\":0,\"viewing_time\":2494.2849999060854}]","rt":2494.524999987334,"trial_type":"instructions","trial_index":23,"time_elapsed":174847,"internal_node_id":"0.0-18.0"},{"rt":3521.610000054352,"stimulus":"<p>Choose a box,</p>","button_pressed":1,"trial_type":"html-button-response","trial_index":24,"time_elapsed":178371,"internal_node_id":"0.0-19.0-0.0"},{"rate":0.2769405371649856,"trial_type":"html-keyboard-response","trial_index":25,"time_elapsed":178372,"internal_node_id":"0.0-19.0-1.0"},{"rt":null,"stimulus":"<div style=\"background-color:#6dce98\"><h1 style=\"background-color:MediumSeaGreen\" >You won a prize! Well done!</h1><div style=\"background-color:#6dce98\"><h1 style=\"background-color:MediumSeaGreen\" >Only 19 left to go!</h1><img id=\"box\" src=\"img/prizes/beachball.png\"></img><img id=\"box\" src=\"img/empty/greenopenbox.png\"></img></div>","key_press":null,"trial_type":"html-keyboard-response","trial_index":25,"time_elapsed":179875,"internal_node_id":"0.0-19.0-1.0"},{"rt":763.7200000463054,"stimulus":"<p>Choose a box,</p>","button_pressed":1,"trial_type":"html-button-response","trial_index":26,"time_elapsed":180640,"internal_node_id":"0.0-19.1-0.1"},{"rate":0.2769405371649856,"trial_type":"html-keyboard-response","trial_index":27,"time_elapsed":180640,"internal_node_id":"0.0-19.1-1.1"},{"rt":null,"stimulus":"<div style=\"background-color:#6dce98\"><h1 style=\"background-color:MediumSeaGreen\" >You won a prize! Well done!</h1><div style=\"background-color:#6dce98\"><h1 style=\"background-color:MediumSeaGreen\" >Only 18 left to go!</h1><img id=\"box\" src=\"img/prizes/choc.png\"></img><img id=\"box\" src=\"img/empty/greenopenbox.png\"></img></div>","key_press":null,"trial_type":"html-keyboard-response","trial_index":27,"time_elapsed":182143,"internal_node_id":"0.0-19.1-1.1"},{"rt":415.5099999625236,"stimulus":"<p>Choose a box,</p>","button_pressed":1,"trial_type":"html-button-response","trial_index":28,"time_elapsed":182559,"internal_node_id":"0.0-19.2-0.2"},{"rate":0.2769405371649856,"trial_type":"html-keyboard-response","trial_index":29,"time_elapsed":182559,"internal_node_id":"0.0-19.2-1.2"},{"rt":null,"stimulus":"<div style=\"background-color:#6dce98\"><h1 style=\"background-color:MediumSeaGreen\" >You won a prize! Well done!</h1><div style=\"background-color:#6dce98\"><h1 style=\"background-color:MediumSeaGreen\" >Only 17 left to go!</h1><img id=\"box\" src=\"img/prizes/duck.png\"></img><img id=\"box\" src=\"img/empty/greenopenbox.png\"></img></div>","key_press":null,"trial_type":"html-keyboard-response","trial_index":29,"time_elapsed":184064,"internal_node_id":"0.0-19.2-1.2"},{"rt":399.24499997869134,"stimulus":"<p>Choose a box,</p>","button_pressed":1,"trial_type":"html-button-response","trial_index":30,"time_elapsed":184465,"internal_node_id":"0.0-19.3-0.3"},{"rate":0.2769405371649856,"trial_type":"html-keyboard-response","trial_index":31,"time_elapsed":184466,"internal_node_id":"0.0-19.3-1.3"},{"rt":null,"stimulus":"<div style=\"background-color:#ff7157\"><h1 style=\"background-color:Tomato\">Bad luck! There was no prize in the box!</h1><h1 style=\"background-color:Tomato\">Remember, you need to keep going until you have 20 prizes!</h1><img id=\"box\" src=\"img/sad/greenopenboxsadthumb.png\"></img></div>","key_press":null,"trial_type":"html-keyboard-response","trial_index":31,"time_elapsed":185967,"internal_node_id":"0.0-19.3-1.3"},{"rt":528.3749999944121,"stimulus":"<p>Choose a box,</p>","button_pressed":1,"trial_type":"html-button-response","trial_index":32,"time_elapsed":186496,"internal_node_id":"0.0-19.4-0.4"},{"rate":0.2769405371649856,"trial_type":"html-keyboard-response","trial_index":33,"time_elapsed":186496,"internal_node_id":"0.0-19.4-1.4"},{"rt":null,"stimulus":"<div style=\"background-color:#ff7157\"><h1 style=\"background-color:Tomato\">Bad luck! There was no prize in the box!</h1><h1 style=\"background-color:Tomato\">Remember, you need to keep going until you have 20 prizes!</h1><img id=\"box\" src=\"img/sad/greenopenboxsadthumb.png\"></img></div>","key_press":null,"trial_type":"html-keyboard-response","trial_index":33,"time_elapsed":187999,"internal_node_id":"0.0-19.4-1.4"},{"rt":407.90500002913177,"stimulus":"<p>Choose a box,</p>","button_pressed":1,"trial_type":"html-button-response","trial_index":34,"time_elapsed":188410,"internal_node_id":"0.0-19.5-0.5"},{"rate":0.2769405371649856,"trial_type":"html-keyboard-response","trial_index":35,"time_elapsed":188410,"internal_node_id":"0.0-19.5-1.5"},{"rt":null,"stimulus":"<div style=\"background-color:#ff7157\"><h1 style=\"background-color:Tomato\">Bad luck! There was no prize in the box!</h1><h1 style=\"background-color:Tomato\">Remember, you need to keep going until you have 20 prizes!</h1><img id=\"box\" src=\"img/sad/greenopenboxsadthumb.png\"></img></div>","key_press":null,"trial_type":"html-keyboard-response","trial_index":35,"time_elapsed":189912,"internal_node_id":"0.0-19.5-1.5"},{"rt":881.070000003092,"stimulus":"<p>Choose a box,</p>","button_pressed":2,"trial_type":"html-button-response","trial_index":36,"time_elapsed":190795,"internal_node_id":"0.0-19.6-0.6"},{"rate":0.8284208761887957,"trial_type":"html-keyboard-response","trial_index":37,"time_elapsed":190796,"internal_node_id":"0.0-19.6-1.6"},{"rt":null,"stimulus":"<div style=\"background-color:#6dce98\"><h1 style=\"background-color:MediumSeaGreen\" >You won a prize! Well done!</h1><div style=\"background-color:#6dce98\"><h1 style=\"background-color:MediumSeaGreen\" >Only 16 left to go!</h1><img id=\"box\" src=\"img/prizes/choc.png\"></img><img id=\"box\" src=\"img/empty/purpleopenbox.png\"></img></div>","key_press":null,"trial_type":"html-keyboard-response","trial_index":37,"time_elapsed":192298,"internal_node_id":"0.0-19.6-1.6"},{"rt":1283.7099999887869,"stimulus":"<p>Choose a box,</p>","button_pressed":2,"trial_type":"html-button-response","trial_index":38,"time_elapsed":193583,"internal_node_id":"0.0-19.7-0.7"},{"rate":0.8284208761887957,"trial_type":"html-keyboard-response","trial_index":39,"time_elapsed":193583,"internal_node_id":"0.0-19.7-1.7"},{"rt":null,"stimulus":"<div style=\"background-color:#6dce98\"><h1 style=\"background-color:MediumSeaGreen\" >You won a prize! Well done!</h1><div style=\"background-color:#6dce98\"><h1 style=\"background-color:MediumSeaGreen\" >Only 15 left to go!</h1><img id=\"box\" src=\"img/prizes/beachball.png\"></img><img id=\"box\" src=\"img/empty/purpleopenbox.png\"></img></div>","key_press":null,"trial_type":"html-keyboard-response","trial_index":39,"time_elapsed":195086,"internal_node_id":"0.0-19.7-1.7"},{"rt":383.2899999106303,"stimulus":"<p>Choose a box,</p>","button_pressed":2,"trial_type":"html-button-response","trial_index":40,"time_elapsed":195473,"internal_node_id":"0.0-19.8-0.8"},{"rate":0.8284208761887957,"trial_type":"html-keyboard-response","trial_index":41,"time_elapsed":195473,"internal_node_id":"0.0-19.8-1.8"},{"rt":null,"stimulus":"<div style=\"background-color:#6dce98\"><h1 style=\"background-color:MediumSeaGreen\" >You won a prize! Well done!</h1><div style=\"background-color:#6dce98\"><h1 style=\"background-color:MediumSeaGreen\" >Only 14 left to go!</h1><img id=\"box\" src=\"img/prizes/bear.png\"></img><img id=\"box\" src=\"img/empty/purpleopenbox.png\"></img></div>","key_press":null,"trial_type":"html-keyboard-response","trial_index":41,"time_elapsed":196975,"internal_node_id":"0.0-19.8-1.8"},{"rt":470.6849999492988,"stimulus":"<p>Choose a box,</p>","button_pressed":2,"trial_type":"html-button-response","trial_index":42,"time_elapsed":197447,"internal_node_id":"0.0-19.9-0.9"},{"rate":0.8284208761887957,"trial_type":"html-keyboard-response","trial_index":43,"time_elapsed":197447,"internal_node_id":"0.0-19.9-1.9"},{"rt":null,"stimulus":"<div style=\"background-color:#6dce98\"><h1 style=\"background-color:MediumSeaGreen\" >You won a prize! Well done!</h1><div style=\"background-color:#6dce98\"><h1 style=\"background-color:MediumSeaGreen\" >Only 13 left to go!</h1><img id=\"box\" src=\"img/prizes/ring.png\"></img><img id=\"box\" src=\"img/empty/purpleopenbox.png\"></img></div>","key_press":null,"trial_type":"html-keyboard-response","trial_index":43,"time_elapsed":198952,"internal_node_id":"0.0-19.9-1.9"},{"rt":437.78000003658235,"stimulus":"<p>Choose a box,</p>","button_pressed":2,"trial_type":"html-button-response","trial_index":44,"time_elapsed":199391,"internal_node_id":"0.0-19.10-0.10"},{"rate":0.8284208761887957,"trial_type":"html-keyboard-response","trial_index":45,"time_elapsed":199391,"internal_node_id":"0.0-19.10-1.10"},{"rt":null,"stimulus":"<div style=\"background-color:#ff7157\"><h1 style=\"background-color:Tomato\">Bad luck! There was no prize in the box!</h1><h1 style=\"background-color:Tomato\">Remember, you need to keep going until you have 20 prizes!</h1><img id=\"box\" src=\"img/sad/purpleopenboxsadthumb.png\"></img></div>","key_press":null,"trial_type":"html-keyboard-response","trial_index":45,"time_elapsed":200893,"internal_node_id":"0.0-19.10-1.10"},{"rt":817.1350000193343,"stimulus":"<p>Choose a box,</p>","button_pressed":2,"trial_type":"html-button-response","trial_index":46,"time_elapsed":201712,"internal_node_id":"0.0-19.11-0.11"},{"rate":0.8284208761887957,"trial_type":"html-keyboard-response","trial_index":47,"time_elapsed":201713,"internal_node_id":"0.0-19.11-1.11"},{"rt":null,"stimulus":"<div style=\"background-color:#6dce98\"><h1 style=\"background-color:MediumSeaGreen\" >You won a prize! Well done!</h1><div style=\"background-color:#6dce98\"><h1 style=\"background-color:MediumSeaGreen\" >Only 12 left to go!</h1><img id=\"box\" src=\"img/prizes/beachball.png\"></img><img id=\"box\" src=\"img/empty/purpleopenbox.png\"></img></div>","key_press":null,"trial_type":"html-keyboard-response","trial_index":47,"time_elapsed":203218,"internal_node_id":"0.0-19.11-1.11"},{"rt":779.3749999254942,"stimulus":"<p>Choose a box,</p>","button_pressed":2,"trial_type":"html-button-response","trial_index":48,"time_elapsed":204000,"internal_node_id":"0.0-19.12-0.12"},{"rate":0.8284208761887957,"trial_type":"html-keyboard-response","trial_index":49,"time_elapsed":204000,"internal_node_id":"0.0-19.12-1.12"},{"rt":null,"stimulus":"<div style=\"background-color:#6dce98\"><h1 style=\"background-color:MediumSeaGreen\" >You won a prize! Well done!</h1><div style=\"background-color:#6dce98\"><h1 style=\"background-color:MediumSeaGreen\" >Only 11 left to go!</h1><img id=\"box\" src=\"img/prizes/bear.png\"></img><img id=\"box\" src=\"img/empty/purpleopenbox.png\"></img></div>","key_press":null,"trial_type":"html-keyboard-response","trial_index":49,"time_elapsed":205504,"internal_node_id":"0.0-19.12-1.12"},{"rt":678.2400000374764,"stimulus":"<p>Choose a box,</p>","button_pressed":2,"trial_type":"html-button-response","trial_index":50,"time_elapsed":206184,"internal_node_id":"0.0-19.13-0.13"},{"rate":0.8284208761887957,"trial_type":"html-keyboard-response","trial_index":51,"time_elapsed":206184,"internal_node_id":"0.0-19.13-1.13"},{"rt":null,"stimulus":"<div style=\"background-color:#6dce98\"><h1 style=\"background-color:MediumSeaGreen\" >You won a prize! Well done!</h1><div style=\"background-color:#6dce98\"><h1 style=\"background-color:MediumSeaGreen\" >Only 10 left to go!</h1><img id=\"box\" src=\"img/prizes/choc.png\"></img><img id=\"box\" src=\"img/empty/purpleopenbox.png\"></img></div>","key_press":null,"trial_type":"html-keyboard-response","trial_index":51,"time_elapsed":207686,"internal_node_id":"0.0-19.13-1.13"},{"rt":743.9850000664592,"stimulus":"<p>Choose a box,</p>","button_pressed":2,"trial_type":"html-button-response","trial_index":52,"time_elapsed":208431,"internal_node_id":"0.0-19.14-0.14"},{"rate":0.8284208761887957,"trial_type":"html-keyboard-response","trial_index":53,"time_elapsed":208431,"internal_node_id":"0.0-19.14-1.14"},{"rt":null,"stimulus":"<div style=\"background-color:#ff7157\"><h1 style=\"background-color:Tomato\">Bad luck! There was no prize in the box!</h1><h1 style=\"background-color:Tomato\">Remember, you need to keep going until you have 20 prizes!</h1><img id=\"box\" src=\"img/sad/purpleopenboxsadthumb.png\"></img></div>","key_press":null,"trial_type":"html-keyboard-response","trial_index":53,"time_elapsed":209934,"internal_node_id":"0.0-19.14-1.14"},{"rt":457.3949999175966,"stimulus":"<p>Choose a box,</p>","button_pressed":2,"trial_type":"html-button-response","trial_index":54,"time_elapsed":210393,"internal_node_id":"0.0-19.15-0.15"},{"rate":0.8284208761887957,"trial_type":"html-keyboard-response","trial_index":55,"time_elapsed":210393,"internal_node_id":"0.0-19.15-1.15"},{"rt":null,"stimulus":"<div style=\"background-color:#6dce98\"><h1 style=\"background-color:MediumSeaGreen\" >You won a prize! Well done!</h1><div style=\"background-color:#6dce98\"><h1 style=\"background-color:MediumSeaGreen\" >Only 9 left to go!</h1><img id=\"box\" src=\"img/prizes/duck.png\"></img><img id=\"box\" src=\"img/empty/purpleopenbox.png\"></img></div>","key_press":null,"trial_type":"html-keyboard-response","trial_index":55,"time_elapsed":211895,"internal_node_id":"0.0-19.15-1.15"},{"rt":598.6950000515208,"stimulus":"<p>Choose a box,</p>","button_pressed":2,"trial_type":"html-button-response","trial_index":56,"time_elapsed":212495,"internal_node_id":"0.0-19.16-0.16"},{"rate":0.8284208761887957,"trial_type":"html-keyboard-response","trial_index":57,"time_elapsed":212495,"internal_node_id":"0.0-19.16-1.16"},{"rt":null,"stimulus":"<div style=\"background-color:#ff7157\"><h1 style=\"background-color:Tomato\">Bad luck! There was no prize in the box!</h1><h1 style=\"background-color:Tomato\">Remember, you need to keep going until you have 20 prizes!</h1><img id=\"box\" src=\"img/sad/purpleopenboxsadthumb.png\"></img></div>","key_press":null,"trial_type":"html-keyboard-response","trial_index":57,"time_elapsed":213998,"internal_node_id":"0.0-19.16-1.16"},{"rt":576.6249999869615,"stimulus":"<p>Choose a box,</p>","button_pressed":2,"trial_type":"html-button-response","trial_index":58,"time_elapsed":214575,"internal_node_id":"0.0-19.17-0.17"},{"rate":0.8284208761887957,"trial_type":"html-keyboard-response","trial_index":59,"time_elapsed":214575,"internal_node_id":"0.0-19.17-1.17"},{"rt":null,"stimulus":"<div style=\"background-color:#6dce98\"><h1 style=\"background-color:MediumSeaGreen\" >You won a prize! Well done!</h1><div style=\"background-color:#6dce98\"><h1 style=\"background-color:MediumSeaGreen\" >Only 8 left to go!</h1><img id=\"box\" src=\"img/prizes/ring.png\"></img><img id=\"box\" src=\"img/empty/purpleopenbox.png\"></img></div>","key_press":null,"trial_type":"html-keyboard-response","trial_index":59,"time_elapsed":216078,"internal_node_id":"0.0-19.17-1.17"},{"rt":626.3050000416115,"stimulus":"<p>Choose a box,</p>","button_pressed":2,"trial_type":"html-button-response","trial_index":60,"time_elapsed":216705,"internal_node_id":"0.0-19.18-0.18"},{"rate":0.8284208761887957,"trial_type":"html-keyboard-response","trial_index":61,"time_elapsed":216705,"internal_node_id":"0.0-19.18-1.18"},{"rt":null,"stimulus":"<div style=\"background-color:#6dce98\"><h1 style=\"background-color:MediumSeaGreen\" >You won a prize! Well done!</h1><div style=\"background-color:#6dce98\"><h1 style=\"background-color:MediumSeaGreen\" >Only 7 left to go!</h1><img id=\"box\" src=\"img/prizes/duck.png\"></img><img id=\"box\" src=\"img/empty/purpleopenbox.png\"></img></div>","key_press":null,"trial_type":"html-keyboard-response","trial_index":61,"time_elapsed":218207,"internal_node_id":"0.0-19.18-1.18"},{"rt":525.0799999339506,"stimulus":"<p>Choose a box,</p>","button_pressed":2,"trial_type":"html-button-response","trial_index":62,"time_elapsed":218735,"internal_node_id":"0.0-19.19-0.19"},{"rate":0.8284208761887957,"trial_type":"html-keyboard-response","trial_index":63,"time_elapsed":218736,"internal_node_id":"0.0-19.19-1.19"},{"rt":null,"stimulus":"<div style=\"background-color:#6dce98\"><h1 style=\"background-color:MediumSeaGreen\" >You won a prize! Well done!</h1><div style=\"background-color:#6dce98\"><h1 style=\"background-color:MediumSeaGreen\" >Only 6 left to go!</h1><img id=\"box\" src=\"img/prizes/coins.png\"></img><img id=\"box\" src=\"img/empty/purpleopenbox.png\"></img></div>","key_press":null,"trial_type":"html-keyboard-response","trial_index":63,"time_elapsed":220238,"internal_node_id":"0.0-19.19-1.19"},{"rt":793.680000002496,"stimulus":"<p>Choose a box,</p>","button_pressed":2,"trial_type":"html-button-response","trial_index":64,"time_elapsed":221033,"internal_node_id":"0.0-19.20-0.20"},{"rate":0.8284208761887957,"trial_type":"html-keyboard-response","trial_index":65,"time_elapsed":221034,"internal_node_id":"0.0-19.20-1.20"},{"rt":null,"stimulus":"<div style=\"background-color:#6dce98\"><h1 style=\"background-color:MediumSeaGreen\" >You won a prize! Well done!</h1><div style=\"background-color:#6dce98\"><h1 style=\"background-color:MediumSeaGreen\" >Only 5 left to go!</h1><img id=\"box\" src=\"img/prizes/ring.png\"></img><img id=\"box\" src=\"img/empty/purpleopenbox.png\"></img></div>","key_press":null,"trial_type":"html-keyboard-response","trial_index":65,"time_elapsed":222535,"internal_node_id":"0.0-19.20-1.20"},{"rt":1103.000000002794,"stimulus":"<p>Choose a box,</p>","button_pressed":2,"trial_type":"html-button-response","trial_index":66,"time_elapsed":223639,"internal_node_id":"0.0-19.21-0.21"},{"rate":0.8284208761887957,"trial_type":"html-keyboard-response","trial_index":67,"time_elapsed":223639,"internal_node_id":"0.0-19.21-1.21"},{"rt":null,"stimulus":"<div style=\"background-color:#6dce98\"><h1 style=\"background-color:MediumSeaGreen\" >You won a prize! Well done!</h1><div style=\"background-color:#6dce98\"><h1 style=\"background-color:MediumSeaGreen\" >Only 4 left to go!</h1><img id=\"box\" src=\"img/prizes/choc.png\"></img><img id=\"box\" src=\"img/empty/purpleopenbox.png\"></img></div>","key_press":null,"trial_type":"html-keyboard-response","trial_index":67,"time_elapsed":225141,"internal_node_id":"0.0-19.21-1.21"},{"rt":901.4899999601766,"stimulus":"<p>Choose a box,</p>","button_pressed":2,"trial_type":"html-button-response","trial_index":68,"time_elapsed":226047,"internal_node_id":"0.0-19.22-0.22"},{"rate":0.8284208761887957,"trial_type":"html-keyboard-response","trial_index":69,"time_elapsed":226047,"internal_node_id":"0.0-19.22-1.22"},{"rt":null,"stimulus":"<div style=\"background-color:#6dce98\"><h1 style=\"background-color:MediumSeaGreen\" >You won a prize! Well done!</h1><div style=\"background-color:#6dce98\"><h1 style=\"background-color:MediumSeaGreen\" >Only 3 left to go!</h1><img id=\"box\" src=\"img/prizes/duck.png\"></img><img id=\"box\" src=\"img/empty/purpleopenbox.png\"></img></div>","key_press":null,"trial_type":"html-keyboard-response","trial_index":69,"time_elapsed":227552,"internal_node_id":"0.0-19.22-1.22"},{"rt":1072.359999991022,"stimulus":"<p>Choose a box,</p>","button_pressed":2,"trial_type":"html-button-response","trial_index":70,"time_elapsed":228627,"internal_node_id":"0.0-19.23-0.23"},{"rate":0.8284208761887957,"trial_type":"html-keyboard-response","trial_index":71,"time_elapsed":228627,"internal_node_id":"0.0-19.23-1.23"},{"rt":null,"stimulus":"<div style=\"background-color:#ff7157\"><h1 style=\"background-color:Tomato\">Bad luck! There was no prize in the box!</h1><h1 style=\"background-color:Tomato\">Remember, you need to keep going until you have 20 prizes!</h1><img id=\"box\" src=\"img/sad/purpleopenboxsadthumb.png\"></img></div>","key_press":null,"trial_type":"html-keyboard-response","trial_index":71,"time_elapsed":230132,"internal_node_id":"0.0-19.23-1.23"},{"rt":1127.3250000085682,"stimulus":"<p>Choose a box,</p>","button_pressed":2,"trial_type":"html-button-response","trial_index":72,"time_elapsed":231263,"internal_node_id":"0.0-19.24-0.24"},{"rate":0.8284208761887957,"trial_type":"html-keyboard-response","trial_index":73,"time_elapsed":231263,"internal_node_id":"0.0-19.24-1.24"},{"rt":null,"stimulus":"<div style=\"background-color:#6dce98\"><h1 style=\"background-color:MediumSeaGreen\" >You won a prize! Well done!</h1><div style=\"background-color:#6dce98\"><h1 style=\"background-color:MediumSeaGreen\" >Only 2 left to go!</h1><img id=\"box\" src=\"img/prizes/lolipop.png\"></img><img id=\"box\" src=\"img/empty/purpleopenbox.png\"></img></div>","key_press":null,"trial_type":"html-keyboard-response","trial_index":73,"time_elapsed":232764,"internal_node_id":"0.0-19.24-1.24"},{"rt":1889.4800000125542,"stimulus":"<p>Choose a box,</p>","button_pressed":2,"trial_type":"html-button-response","trial_index":74,"time_elapsed":234655,"internal_node_id":"0.0-19.25-0.25"},{"rate":0.8284208761887957,"trial_type":"html-keyboard-response","trial_index":75,"time_elapsed":234655,"internal_node_id":"0.0-19.25-1.25"},{"rt":null,"stimulus":"<div style=\"background-color:#6dce98\"><h1 style=\"background-color:MediumSeaGreen\" >You won a prize! Well done!</h1><div style=\"background-color:#6dce98\"><h1 style=\"background-color:MediumSeaGreen\" >Only 1 left to go!</h1><img id=\"box\" src=\"img/prizes/flowers.png\"></img><img id=\"box\" src=\"img/empty/purpleopenbox.png\"></img></div>","key_press":null,"trial_type":"html-keyboard-response","trial_index":75,"time_elapsed":236157,"internal_node_id":"0.0-19.25-1.25"},{"rt":881.1050000367686,"stimulus":"<p>Choose a box,</p>","button_pressed":2,"trial_type":"html-button-response","trial_index":76,"time_elapsed":237039,"internal_node_id":"0.0-19.26-0.26"},{"rate":0.8284208761887957,"trial_type":"html-keyboard-response","trial_index":77,"time_elapsed":237040,"internal_node_id":"0.0-19.26-1.26"},{"rt":null,"stimulus":"<div style=\"background-color:#6dce98\"><h1 style=\"background-color:MediumSeaGreen\" >You won a prize! Well done!</h1><div style=\"background-color:#6dce98\"><h1 style=\"background-color:MediumSeaGreen\" >Only 0 left to go!</h1><img id=\"box\" src=\"img/prizes/lolipop.png\"></img><img id=\"box\" src=\"img/empty/purpleopenbox.png\"></img></div>","key_press":null,"trial_type":"html-keyboard-response","trial_index":77,"time_elapsed":238542,"internal_node_id":"0.0-19.26-1.26"},{"rt":98414.9449999677,"responses":"{\"Q0\":\"it was interesting\",\"Q1\":\"i chose a box that would not not give me a reward for more than two times in a row\"}","trial_type":"survey-text","trial_index":78,"time_elapsed":336968,"internal_node_id":"0.0-20.0"}]