[{"view_history":"[{\"page_index\":0,\"viewing_time\":27690.82000000344},{\"page_index\":1,\"viewing_time\":4502.934999996796},{\"page_index\":2,\"viewing_time\":20904.690000010305},{\"page_index\":3,\"viewing_time\":15495.469999994384},{\"page_index\":4,\"viewing_time\":2288.0799999984447},{\"page_index\":5,\"viewing_time\":3208.245000001625}]","rt":74091.39500001038,"trial_type":"instructions","trial_index":0,"time_elapsed":74098,"internal_node_id":"0.0-0.0"},{"rt":10907.800000000861,"responses":"{\"Q0\":\"Yes\",\"Q1\":\"Yes\",\"Q2\":\"Yes\"}","question_order":"[0,1,2]","trial_type":"survey-multi-choice","trial_index":1,"time_elapsed":85009,"internal_node_id":"0.0-1.0-0.0"},{"rt":15993.264999997336,"responses":"{\"Q0\":\"Yes\",\"Q1\":\"Yes\",\"Q2\":\"Yes\"}","question_order":"[0,1,2]","trial_type":"survey-multi-choice","trial_index":2,"time_elapsed":101009,"internal_node_id":"0.0-2.0-0.0"},{"rt":6000.545000002603,"responses":"{\"Q0\":\"5f4cc9bb8ac21f7b5e43cc40\"}","trial_type":"survey-text","trial_index":3,"time_elapsed":107017,"internal_node_id":"0.0-3.0"},{"rt":4198.049999991781,"responses":"{\"Q0\":\"Female\",\"Q1\":\"18-25\"}","question_order":"[0,1]","trial_type":"survey-multi-choice","trial_index":4,"time_elapsed":111217,"internal_node_id":"0.0-4.0"},{"rt":6327.755000005709,"responses":"{\"Q0\":\"\"}","trial_type":"survey-text","trial_index":5,"time_elapsed":117552,"internal_node_id":"0.0-5.0"},{"view_history":"[{\"page_index\":0,\"viewing_time\":3846.5350000042235}]","rt":3846.835000003921,"trial_type":"instructions","trial_index":6,"time_elapsed":121400,"internal_node_id":"0.0-6.0"},{"rt":50672.320000012405,"responses":"{\"Interested\":2,\"Distressed\":3,\"Excited\":2,\"Upset\":3}","question_order":"[0,1,2,3]","trial_type":"survey-likert","trial_index":7,"time_elapsed":172075,"internal_node_id":"0.0-7.0"},{"rt":55465.33500000078,"responses":"{\"Strong\":2,\"Guilty\":3,\"Scared\":3,\"Hostile\":2}","question_order":"[0,1,2,3]","trial_type":"survey-likert","trial_index":8,"time_elapsed":227546,"internal_node_id":"0.0-8.0"},{"rt":14042.929999995977,"responses":"{\"Enthusiastic\":2,\"Proud\":1,\"Irritable\":3,\"Alert\":2}","question_order":"[0,1,2,3]","trial_type":"survey-likert","trial_index":9,"time_elapsed":241595,"internal_node_id":"0.0-9.0"},{"rt":11242.790000003879,"responses":"{\"Ashamed\":2,\"Inspired\":1,\"Nervous\":3,\"Determined\":1}","question_order":"[0,1,2,3]","trial_type":"survey-likert","trial_index":10,"time_elapsed":252843,"internal_node_id":"0.0-10.0"},{"rt":31031.875000000582,"responses":"{\"Attentive\":1,\"Jittery\":3,\"Active\":2,\"Afraid\":3}","question_order":"[0,1,2,3]","trial_type":"survey-likert","trial_index":11,"time_elapsed":283881,"internal_node_id":"0.0-11.0"},{"rt":22106.750000006286,"responses":"{\"Q0\":2,\"Q1\":1,\"Q2\":0,\"Q3\":2}","question_order":"[0,1,2,3]","trial_type":"survey-likert","trial_index":12,"time_elapsed":305994,"internal_node_id":"0.0-12.0"},{"rt":27010.81000000704,"responses":"{\"Q0\":1,\"Q1\":2,\"Q2\":0,\"Q3\":0}","question_order":"[0,1,2,3]","trial_type":"survey-likert","trial_index":13,"time_elapsed":333009,"internal_node_id":"0.0-13.0"},{"rt":22090.56499999133,"responses":"{\"Q0\":2,\"Q1\":2,\"Q2\":3,\"Q3\":1}","question_order":"[0,1,2,3]","trial_type":"survey-likert","trial_index":14,"time_elapsed":355107,"internal_node_id":"0.0-14.0"},{"rt":12945.36500000686,"responses":"{\"Q0\":0,\"Q1\":1,\"Q2\":3}","question_order":"[0,1,2]","trial_type":"survey-likert","trial_index":15,"time_elapsed":368058,"internal_node_id":"0.0-15.0"},{"view_history":"[{\"page_index\":0,\"viewing_time\":2864.260000002105},{\"page_index\":1,\"viewing_time\":14487.880000000587},{\"page_index\":2,\"viewing_time\":9248.500000001513}]","rt":26600.99999999511,"trial_type":"instructions","trial_index":16,"time_elapsed":394666,"internal_node_id":"0.0-16.0"},{"rt":2206.2849999929313,"stimulus":"<p>Choose a box,</p>","button_pressed":3,"trial_type":"html-button-response","trial_index":17,"time_elapsed":396875,"internal_node_id":"0.0-17.0-0.0"},{"rate":0.4450562083791569,"trial_type":"html-keyboard-response","trial_index":18,"time_elapsed":396875,"internal_node_id":"0.0-17.0-1.0"},{"rt":null,"stimulus":"<div style=\"background-color:#ff7157\"><h1 style=\"background-color:Tomato\">Bad luck! There was no prize in the box!</h1><h1 style=\"background-color:Tomato\">Remember, you need to keep going until you have 20 prizes!</h1><img id=\"box\" src=\"img/sad/redopenboxsadthumb.png\"></img></div>","key_press":null,"trial_type":"html-keyboard-response","trial_index":18,"time_elapsed":398379,"internal_node_id":"0.0-17.0-1.0"},{"rt":2345.840000009048,"stimulus":"<p>Choose a box,</p>","button_pressed":0,"trial_type":"html-button-response","trial_index":19,"time_elapsed":400729,"internal_node_id":"0.0-17.0-0.1"},{"rate":0.7288272586983663,"trial_type":"html-keyboard-response","trial_index":20,"time_elapsed":400729,"internal_node_id":"0.0-17.0-1.1"},{"rt":null,"stimulus":"<div style=\"background-color:#6dce98\"><h1 style=\"background-color:MediumSeaGreen\" >You won a prize! Well done!</h1><div style=\"background-color:#6dce98\"><h1 style=\"background-color:MediumSeaGreen\" >Only 19 left to go!</h1><img id=\"box\" src=\"img/prizes/coins.png\"></img><img id=\"box\" src=\"img/empty/blueopenbox.png\"></img></div>","key_press":null,"trial_type":"html-keyboard-response","trial_index":20,"time_elapsed":402231,"internal_node_id":"0.0-17.0-1.1"},{"rt":6895.094999999856,"stimulus":"<p>Choose a box,</p>","button_pressed":2,"trial_type":"html-button-response","trial_index":21,"time_elapsed":409129,"internal_node_id":"0.0-17.0-0.2"},{"rate":0.8540877092765078,"trial_type":"html-keyboard-response","trial_index":22,"time_elapsed":409130,"internal_node_id":"0.0-17.0-1.2"},{"rt":null,"stimulus":"<div style=\"background-color:#6dce98\"><h1 style=\"background-color:MediumSeaGreen\" >You won a prize! Well done!</h1><div style=\"background-color:#6dce98\"><h1 style=\"background-color:MediumSeaGreen\" >Only 18 left to go!</h1><img id=\"box\" src=\"img/prizes/ring.png\"></img><img id=\"box\" src=\"img/empty/purpleopenbox.png\"></img></div>","key_press":null,"trial_type":"html-keyboard-response","trial_index":22,"time_elapsed":410631,"internal_node_id":"0.0-17.0-1.2"},{"view_history":"[{\"page_index\":0,\"viewing_time\":7077.044999998179}]","rt":7077.485000001616,"trial_type":"instructions","trial_index":23,"time_elapsed":417713,"internal_node_id":"0.0-18.0"},{"rt":2142.169999991893,"stimulus":"<p>Choose a box,</p>","button_pressed":0,"trial_type":"html-button-response","trial_index":24,"time_elapsed":419858,"internal_node_id":"0.0-19.0-0.0"},{"rate":0.054840003301800014,"trial_type":"html-keyboard-response","trial_index":25,"time_elapsed":419858,"internal_node_id":"0.0-19.0-1.0"},{"rt":null,"stimulus":"<div style=\"background-color:#ff7157\"><h1 style=\"background-color:Tomato\">Bad luck! There was no prize in the box!</h1><h1 style=\"background-color:Tomato\">Remember, you need to keep going until you have 20 prizes!</h1><img id=\"box\" src=\"img/sad/blueopenboxsadthumb.png\"></img></div>","key_press":null,"trial_type":"html-keyboard-response","trial_index":25,"time_elapsed":421359,"internal_node_id":"0.0-19.0-1.0"},{"rt":1029.4649999996182,"stimulus":"<p>Choose a box,</p>","button_pressed":2,"trial_type":"html-button-response","trial_index":26,"time_elapsed":422394,"internal_node_id":"0.0-19.1-0.1"},{"rate":0.49061140700856143,"trial_type":"html-keyboard-response","trial_index":27,"time_elapsed":422394,"internal_node_id":"0.0-19.1-1.1"},{"rt":null,"stimulus":"<div style=\"background-color:#ff7157\"><h1 style=\"background-color:Tomato\">Bad luck! There was no prize in the box!</h1><h1 style=\"background-color:Tomato\">Remember, you need to keep going until you have 20 prizes!</h1><img id=\"box\" src=\"img/sad/purpleopenboxsadthumb.png\"></img></div>","key_press":null,"trial_type":"html-keyboard-response","trial_index":27,"time_elapsed":423896,"internal_node_id":"0.0-19.1-1.1"},{"rt":606.5150000067661,"stimulus":"<p>Choose a box,</p>","button_pressed":3,"trial_type":"html-button-response","trial_index":28,"time_elapsed":424505,"internal_node_id":"0.0-19.2-0.2"},{"rate":0.9015221666944735,"trial_type":"html-keyboard-response","trial_index":29,"time_elapsed":424506,"internal_node_id":"0.0-19.2-1.2"},{"rt":null,"stimulus":"<div style=\"background-color:#6dce98\"><h1 style=\"background-color:MediumSeaGreen\" >You won a prize! Well done!</h1><div style=\"background-color:#6dce98\"><h1 style=\"background-color:MediumSeaGreen\" >Only 19 left to go!</h1><img id=\"box\" src=\"img/prizes/beachball.png\"></img><img id=\"box\" src=\"img/empty/redopenbox.png\"></img></div>","key_press":null,"trial_type":"html-keyboard-response","trial_index":29,"time_elapsed":426007,"internal_node_id":"0.0-19.2-1.2"},{"rt":1230.4350000049453,"stimulus":"<p>Choose a box,</p>","button_pressed":1,"trial_type":"html-button-response","trial_index":30,"time_elapsed":427241,"internal_node_id":"0.0-19.3-0.3"},{"rate":0.3295677804498242,"trial_type":"html-keyboard-response","trial_index":31,"time_elapsed":427241,"internal_node_id":"0.0-19.3-1.3"},{"rt":null,"stimulus":"<div style=\"background-color:#ff7157\"><h1 style=\"background-color:Tomato\">Bad luck! There was no prize in the box!</h1><h1 style=\"background-color:Tomato\">Remember, you need to keep going until you have 20 prizes!</h1><img id=\"box\" src=\"img/sad/greenopenboxsadthumb.png\"></img></div>","key_press":null,"trial_type":"html-keyboard-response","trial_index":31,"time_elapsed":428742,"internal_node_id":"0.0-19.3-1.3"},{"rt":1047.550000002957,"stimulus":"<p>Choose a box,</p>","button_pressed":2,"trial_type":"html-button-response","trial_index":32,"time_elapsed":429793,"internal_node_id":"0.0-19.4-0.4"},{"rate":0.49061140700856143,"trial_type":"html-keyboard-response","trial_index":33,"time_elapsed":429793,"internal_node_id":"0.0-19.4-1.4"},{"rt":null,"stimulus":"<div style=\"background-color:#6dce98\"><h1 style=\"background-color:MediumSeaGreen\" >You won a prize! Well done!</h1><div style=\"background-color:#6dce98\"><h1 style=\"background-color:MediumSeaGreen\" >Only 18 left to go!</h1><img id=\"box\" src=\"img/prizes/bear.png\"></img><img id=\"box\" src=\"img/empty/purpleopenbox.png\"></img></div>","key_press":null,"trial_type":"html-keyboard-response","trial_index":33,"time_elapsed":431296,"internal_node_id":"0.0-19.4-1.4"},{"rt":750.5950000049779,"stimulus":"<p>Choose a box,</p>","button_pressed":0,"trial_type":"html-button-response","trial_index":34,"time_elapsed":432050,"internal_node_id":"0.0-19.5-0.5"},{"rate":0.054840003301800014,"trial_type":"html-keyboard-response","trial_index":35,"time_elapsed":432050,"internal_node_id":"0.0-19.5-1.5"},{"rt":null,"stimulus":"<div style=\"background-color:#ff7157\"><h1 style=\"background-color:Tomato\">Bad luck! There was no prize in the box!</h1><h1 style=\"background-color:Tomato\">Remember, you need to keep going until you have 20 prizes!</h1><img id=\"box\" src=\"img/sad/blueopenboxsadthumb.png\"></img></div>","key_press":null,"trial_type":"html-keyboard-response","trial_index":35,"time_elapsed":433552,"internal_node_id":"0.0-19.5-1.5"},{"rt":613.4199999942211,"stimulus":"<p>Choose a box,</p>","button_pressed":3,"trial_type":"html-button-response","trial_index":36,"time_elapsed":434169,"internal_node_id":"0.0-19.6-0.6"},{"rate":0.9015221666944735,"trial_type":"html-keyboard-response","trial_index":37,"time_elapsed":434169,"internal_node_id":"0.0-19.6-1.6"},{"rt":null,"stimulus":"<div style=\"background-color:#6dce98\"><h1 style=\"background-color:MediumSeaGreen\" >You won a prize! Well done!</h1><div style=\"background-color:#6dce98\"><h1 style=\"background-color:MediumSeaGreen\" >Only 17 left to go!</h1><img id=\"box\" src=\"img/prizes/choc.png\"></img><img id=\"box\" src=\"img/empty/redopenbox.png\"></img></div>","key_press":null,"trial_type":"html-keyboard-response","trial_index":37,"time_elapsed":435671,"internal_node_id":"0.0-19.6-1.6"},{"rt":1775.4999999888241,"stimulus":"<p>Choose a box,</p>","button_pressed":0,"trial_type":"html-button-response","trial_index":38,"time_elapsed":437450,"internal_node_id":"0.0-19.7-0.7"},{"rate":0.054840003301800014,"trial_type":"html-keyboard-response","trial_index":39,"time_elapsed":437450,"internal_node_id":"0.0-19.7-1.7"},{"rt":null,"stimulus":"<div style=\"background-color:#ff7157\"><h1 style=\"background-color:Tomato\">Bad luck! There was no prize in the box!</h1><h1 style=\"background-color:Tomato\">Remember, you need to keep going until you have 20 prizes!</h1><img id=\"box\" src=\"img/sad/blueopenboxsadthumb.png\"></img></div>","key_press":null,"trial_type":"html-keyboard-response","trial_index":39,"time_elapsed":438958,"internal_node_id":"0.0-19.7-1.7"},{"rt":393.1400000001304,"stimulus":"<p>Choose a box,</p>","button_pressed":1,"trial_type":"html-button-response","trial_index":40,"time_elapsed":439354,"internal_node_id":"0.0-19.8-0.8"},{"rate":0.3295677804498242,"trial_type":"html-keyboard-response","trial_index":41,"time_elapsed":439354,"internal_node_id":"0.0-19.8-1.8"},{"rt":null,"stimulus":"<div style=\"background-color:#6dce98\"><h1 style=\"background-color:MediumSeaGreen\" >You won a prize! Well done!</h1><div style=\"background-color:#6dce98\"><h1 style=\"background-color:MediumSeaGreen\" >Only 16 left to go!</h1><img id=\"box\" src=\"img/prizes/bear.png\"></img><img id=\"box\" src=\"img/empty/greenopenbox.png\"></img></div>","key_press":null,"trial_type":"html-keyboard-response","trial_index":41,"time_elapsed":440857,"internal_node_id":"0.0-19.8-1.8"},{"rt":693.3549999957904,"stimulus":"<p>Choose a box,</p>","button_pressed":2,"trial_type":"html-button-response","trial_index":42,"time_elapsed":441554,"internal_node_id":"0.0-19.9-0.9"},{"rate":0.49061140700856143,"trial_type":"html-keyboard-response","trial_index":43,"time_elapsed":441554,"internal_node_id":"0.0-19.9-1.9"},{"rt":null,"stimulus":"<div style=\"background-color:#6dce98\"><h1 style=\"background-color:MediumSeaGreen\" >You won a prize! Well done!</h1><div style=\"background-color:#6dce98\"><h1 style=\"background-color:MediumSeaGreen\" >Only 15 left to go!</h1><img id=\"box\" src=\"img/prizes/coins.png\"></img><img id=\"box\" src=\"img/empty/purpleopenbox.png\"></img></div>","key_press":null,"trial_type":"html-keyboard-response","trial_index":43,"time_elapsed":443059,"internal_node_id":"0.0-19.9-1.9"},{"rt":683.9049999980489,"stimulus":"<p>Choose a box,</p>","button_pressed":2,"trial_type":"html-button-response","trial_index":44,"time_elapsed":443746,"internal_node_id":"0.0-19.10-0.10"},{"rate":0.49061140700856143,"trial_type":"html-keyboard-response","trial_index":45,"time_elapsed":443746,"internal_node_id":"0.0-19.10-1.10"},{"rt":null,"stimulus":"<div style=\"background-color:#6dce98\"><h1 style=\"background-color:MediumSeaGreen\" >You won a prize! Well done!</h1><div style=\"background-color:#6dce98\"><h1 style=\"background-color:MediumSeaGreen\" >Only 14 left to go!</h1><img id=\"box\" src=\"img/prizes/flowers.png\"></img><img id=\"box\" src=\"img/empty/purpleopenbox.png\"></img></div>","key_press":null,"trial_type":"html-keyboard-response","trial_index":45,"time_elapsed":445251,"internal_node_id":"0.0-19.10-1.10"},{"rt":444.81999998970423,"stimulus":"<p>Choose a box,</p>","button_pressed":2,"trial_type":"html-button-response","trial_index":46,"time_elapsed":445698,"internal_node_id":"0.0-19.11-0.11"},{"rate":0.49061140700856143,"trial_type":"html-keyboard-response","trial_index":47,"time_elapsed":445698,"internal_node_id":"0.0-19.11-1.11"},{"rt":null,"stimulus":"<div style=\"background-color:#6dce98\"><h1 style=\"background-color:MediumSeaGreen\" >You won a prize! Well done!</h1><div style=\"background-color:#6dce98\"><h1 style=\"background-color:MediumSeaGreen\" >Only 13 left to go!</h1><img id=\"box\" src=\"img/prizes/duck.png\"></img><img id=\"box\" src=\"img/empty/purpleopenbox.png\"></img></div>","key_press":null,"trial_type":"html-keyboard-response","trial_index":47,"time_elapsed":447215,"internal_node_id":"0.0-19.11-1.11"},{"rt":431.1100000049919,"stimulus":"<p>Choose a box,</p>","button_pressed":2,"trial_type":"html-button-response","trial_index":48,"time_elapsed":447650,"internal_node_id":"0.0-19.12-0.12"},{"rate":0.49061140700856143,"trial_type":"html-keyboard-response","trial_index":49,"time_elapsed":447650,"internal_node_id":"0.0-19.12-1.12"},{"rt":null,"stimulus":"<div style=\"background-color:#6dce98\"><h1 style=\"background-color:MediumSeaGreen\" >You won a prize! Well done!</h1><div style=\"background-color:#6dce98\"><h1 style=\"background-color:MediumSeaGreen\" >Only 12 left to go!</h1><img id=\"box\" src=\"img/prizes/duck.png\"></img><img id=\"box\" src=\"img/empty/purpleopenbox.png\"></img></div>","key_press":null,"trial_type":"html-keyboard-response","trial_index":49,"time_elapsed":449158,"internal_node_id":"0.0-19.12-1.12"},{"rt":864.770000000135,"stimulus":"<p>Choose a box,</p>","button_pressed":0,"trial_type":"html-button-response","trial_index":50,"time_elapsed":450026,"internal_node_id":"0.0-19.13-0.13"},{"rate":0.054840003301800014,"trial_type":"html-keyboard-response","trial_index":51,"time_elapsed":450026,"internal_node_id":"0.0-19.13-1.13"},{"rt":null,"stimulus":"<div style=\"background-color:#ff7157\"><h1 style=\"background-color:Tomato\">Bad luck! There was no prize in the box!</h1><h1 style=\"background-color:Tomato\">Remember, you need to keep going until you have 20 prizes!</h1><img id=\"box\" src=\"img/sad/blueopenboxsadthumb.png\"></img></div>","key_press":null,"trial_type":"html-keyboard-response","trial_index":51,"time_elapsed":451530,"internal_node_id":"0.0-19.13-1.13"},{"rt":372.7599999983795,"stimulus":"<p>Choose a box,</p>","button_pressed":1,"trial_type":"html-button-response","trial_index":52,"time_elapsed":451906,"internal_node_id":"0.0-19.14-0.14"},{"rate":0.3295677804498242,"trial_type":"html-keyboard-response","trial_index":53,"time_elapsed":451906,"internal_node_id":"0.0-19.14-1.14"},{"rt":null,"stimulus":"<div style=\"background-color:#ff7157\"><h1 style=\"background-color:Tomato\">Bad luck! There was no prize in the box!</h1><h1 style=\"background-color:Tomato\">Remember, you need to keep going until you have 20 prizes!</h1><img id=\"box\" src=\"img/sad/greenopenboxsadthumb.png\"></img></div>","key_press":null,"trial_type":"html-keyboard-response","trial_index":53,"time_elapsed":453408,"internal_node_id":"0.0-19.14-1.14"},{"rt":383.02000000840053,"stimulus":"<p>Choose a box,</p>","button_pressed":3,"trial_type":"html-button-response","trial_index":54,"time_elapsed":453795,"internal_node_id":"0.0-19.15-0.15"},{"rate":0.9015221666944735,"trial_type":"html-keyboard-response","trial_index":55,"time_elapsed":453795,"internal_node_id":"0.0-19.15-1.15"},{"rt":null,"stimulus":"<div style=\"background-color:#6dce98\"><h1 style=\"background-color:MediumSeaGreen\" >You won a prize! Well done!</h1><div style=\"background-color:#6dce98\"><h1 style=\"background-color:MediumSeaGreen\" >Only 11 left to go!</h1><img id=\"box\" src=\"img/prizes/yoyo.png\"></img><img id=\"box\" src=\"img/empty/redopenbox.png\"></img></div>","key_press":null,"trial_type":"html-keyboard-response","trial_index":55,"time_elapsed":455297,"internal_node_id":"0.0-19.15-1.15"},{"rt":485.1150000031339,"stimulus":"<p>Choose a box,</p>","button_pressed":3,"trial_type":"html-button-response","trial_index":56,"time_elapsed":455786,"internal_node_id":"0.0-19.16-0.16"},{"rate":0.9015221666944735,"trial_type":"html-keyboard-response","trial_index":57,"time_elapsed":455786,"internal_node_id":"0.0-19.16-1.16"},{"rt":null,"stimulus":"<div style=\"background-color:#6dce98\"><h1 style=\"background-color:MediumSeaGreen\" >You won a prize! Well done!</h1><div style=\"background-color:#6dce98\"><h1 style=\"background-color:MediumSeaGreen\" >Only 10 left to go!</h1><img id=\"box\" src=\"img/prizes/ring.png\"></img><img id=\"box\" src=\"img/empty/redopenbox.png\"></img></div>","key_press":null,"trial_type":"html-keyboard-response","trial_index":57,"time_elapsed":457317,"internal_node_id":"0.0-19.16-1.16"},{"rt":331.1200000025565,"stimulus":"<p>Choose a box,</p>","button_pressed":3,"trial_type":"html-button-response","trial_index":58,"time_elapsed":457650,"internal_node_id":"0.0-19.17-0.17"},{"rate":0.9015221666944735,"trial_type":"html-keyboard-response","trial_index":59,"time_elapsed":457650,"internal_node_id":"0.0-19.17-1.17"},{"rt":null,"stimulus":"<div style=\"background-color:#6dce98\"><h1 style=\"background-color:MediumSeaGreen\" >You won a prize! Well done!</h1><div style=\"background-color:#6dce98\"><h1 style=\"background-color:MediumSeaGreen\" >Only 9 left to go!</h1><img id=\"box\" src=\"img/prizes/lolipop.png\"></img><img id=\"box\" src=\"img/empty/redopenbox.png\"></img></div>","key_press":null,"trial_type":"html-keyboard-response","trial_index":59,"time_elapsed":459161,"internal_node_id":"0.0-19.17-1.17"},{"rt":379.75000000733417,"stimulus":"<p>Choose a box,</p>","button_pressed":3,"trial_type":"html-button-response","trial_index":60,"time_elapsed":459546,"internal_node_id":"0.0-19.18-0.18"},{"rate":0.9015221666944735,"trial_type":"html-keyboard-response","trial_index":61,"time_elapsed":459546,"internal_node_id":"0.0-19.18-1.18"},{"rt":null,"stimulus":"<div style=\"background-color:#6dce98\"><h1 style=\"background-color:MediumSeaGreen\" >You won a prize! Well done!</h1><div style=\"background-color:#6dce98\"><h1 style=\"background-color:MediumSeaGreen\" >Only 8 left to go!</h1><img id=\"box\" src=\"img/prizes/yoyo.png\"></img><img id=\"box\" src=\"img/empty/redopenbox.png\"></img></div>","key_press":null,"trial_type":"html-keyboard-response","trial_index":61,"time_elapsed":461060,"internal_node_id":"0.0-19.18-1.18"},{"rt":621.1599999951432,"stimulus":"<p>Choose a box,</p>","button_pressed":2,"trial_type":"html-button-response","trial_index":62,"time_elapsed":461689,"internal_node_id":"0.0-19.19-0.19"},{"rate":0.49061140700856143,"trial_type":"html-keyboard-response","trial_index":63,"time_elapsed":461690,"internal_node_id":"0.0-19.19-1.19"},{"rt":null,"stimulus":"<div style=\"background-color:#6dce98\"><h1 style=\"background-color:MediumSeaGreen\" >You won a prize! Well done!</h1><div style=\"background-color:#6dce98\"><h1 style=\"background-color:MediumSeaGreen\" >Only 7 left to go!</h1><img id=\"box\" src=\"img/prizes/choc.png\"></img><img id=\"box\" src=\"img/empty/purpleopenbox.png\"></img></div>","key_press":null,"trial_type":"html-keyboard-response","trial_index":63,"time_elapsed":463195,"internal_node_id":"0.0-19.19-1.19"},{"rt":338.39000000443775,"stimulus":"<p>Choose a box,</p>","button_pressed":3,"trial_type":"html-button-response","trial_index":64,"time_elapsed":463538,"internal_node_id":"0.0-19.20-0.20"},{"rate":0.9015221666944735,"trial_type":"html-keyboard-response","trial_index":65,"time_elapsed":463538,"internal_node_id":"0.0-19.20-1.20"},{"rt":null,"stimulus":"<div style=\"background-color:#6dce98\"><h1 style=\"background-color:MediumSeaGreen\" >You won a prize! Well done!</h1><div style=\"background-color:#6dce98\"><h1 style=\"background-color:MediumSeaGreen\" >Only 6 left to go!</h1><img id=\"box\" src=\"img/prizes/ring.png\"></img><img id=\"box\" src=\"img/empty/redopenbox.png\"></img></div>","key_press":null,"trial_type":"html-keyboard-response","trial_index":65,"time_elapsed":465040,"internal_node_id":"0.0-19.20-1.20"},{"rt":404.86999999848194,"stimulus":"<p>Choose a box,</p>","button_pressed":2,"trial_type":"html-button-response","trial_index":66,"time_elapsed":465450,"internal_node_id":"0.0-19.21-0.21"},{"rate":0.49061140700856143,"trial_type":"html-keyboard-response","trial_index":67,"time_elapsed":465450,"internal_node_id":"0.0-19.21-1.21"},{"rt":null,"stimulus":"<div style=\"background-color:#6dce98\"><h1 style=\"background-color:MediumSeaGreen\" >You won a prize! Well done!</h1><div style=\"background-color:#6dce98\"><h1 style=\"background-color:MediumSeaGreen\" >Only 5 left to go!</h1><img id=\"box\" src=\"img/prizes/beachball.png\"></img><img id=\"box\" src=\"img/empty/purpleopenbox.png\"></img></div>","key_press":null,"trial_type":"html-keyboard-response","trial_index":67,"time_elapsed":466951,"internal_node_id":"0.0-19.21-1.21"},{"rt":334.8450000048615,"stimulus":"<p>Choose a box,</p>","button_pressed":3,"trial_type":"html-button-response","trial_index":68,"time_elapsed":467290,"internal_node_id":"0.0-19.22-0.22"},{"rate":0.9015221666944735,"trial_type":"html-keyboard-response","trial_index":69,"time_elapsed":467290,"internal_node_id":"0.0-19.22-1.22"},{"rt":null,"stimulus":"<div style=\"background-color:#ff7157\"><h1 style=\"background-color:Tomato\">Bad luck! There was no prize in the box!</h1><h1 style=\"background-color:Tomato\">Remember, you need to keep going until you have 20 prizes!</h1><img id=\"box\" src=\"img/sad/redopenboxsadthumb.png\"></img></div>","key_press":null,"trial_type":"html-keyboard-response","trial_index":69,"time_elapsed":468793,"internal_node_id":"0.0-19.22-1.22"},{"rt":502.26999999722466,"stimulus":"<p>Choose a box,</p>","button_pressed":2,"trial_type":"html-button-response","trial_index":70,"time_elapsed":469298,"internal_node_id":"0.0-19.23-0.23"},{"rate":0.49061140700856143,"trial_type":"html-keyboard-response","trial_index":71,"time_elapsed":469298,"internal_node_id":"0.0-19.23-1.23"},{"rt":null,"stimulus":"<div style=\"background-color:#ff7157\"><h1 style=\"background-color:Tomato\">Bad luck! There was no prize in the box!</h1><h1 style=\"background-color:Tomato\">Remember, you need to keep going until you have 20 prizes!</h1><img id=\"box\" src=\"img/sad/purpleopenboxsadthumb.png\"></img></div>","key_press":null,"trial_type":"html-keyboard-response","trial_index":71,"time_elapsed":470803,"internal_node_id":"0.0-19.23-1.23"},{"rt":619.7950000059791,"stimulus":"<p>Choose a box,</p>","button_pressed":0,"trial_type":"html-button-response","trial_index":72,"time_elapsed":471426,"internal_node_id":"0.0-19.24-0.24"},{"rate":0.054840003301800014,"trial_type":"html-keyboard-response","trial_index":73,"time_elapsed":471426,"internal_node_id":"0.0-19.24-1.24"},{"rt":null,"stimulus":"<div style=\"background-color:#ff7157\"><h1 style=\"background-color:Tomato\">Bad luck! There was no prize in the box!</h1><h1 style=\"background-color:Tomato\">Remember, you need to keep going until you have 20 prizes!</h1><img id=\"box\" src=\"img/sad/blueopenboxsadthumb.png\"></img></div>","key_press":null,"trial_type":"html-keyboard-response","trial_index":73,"time_elapsed":472928,"internal_node_id":"0.0-19.24-1.24"},{"rt":422.27500000444707,"stimulus":"<p>Choose a box,</p>","button_pressed":2,"trial_type":"html-button-response","trial_index":74,"time_elapsed":473354,"internal_node_id":"0.0-19.25-0.25"},{"rate":0.49061140700856143,"trial_type":"html-keyboard-response","trial_index":75,"time_elapsed":473354,"internal_node_id":"0.0-19.25-1.25"},{"rt":null,"stimulus":"<div style=\"background-color:#ff7157\"><h1 style=\"background-color:Tomato\">Bad luck! There was no prize in the box!</h1><h1 style=\"background-color:Tomato\">Remember, you need to keep going until you have 20 prizes!</h1><img id=\"box\" src=\"img/sad/purpleopenboxsadthumb.png\"></img></div>","key_press":null,"trial_type":"html-keyboard-response","trial_index":75,"time_elapsed":474860,"internal_node_id":"0.0-19.25-1.25"},{"rt":361.1200000013923,"stimulus":"<p>Choose a box,</p>","button_pressed":1,"trial_type":"html-button-response","trial_index":76,"time_elapsed":475226,"internal_node_id":"0.0-19.26-0.26"},{"rate":0.3295677804498242,"trial_type":"html-keyboard-response","trial_index":77,"time_elapsed":475226,"internal_node_id":"0.0-19.26-1.26"},{"rt":null,"stimulus":"<div style=\"background-color:#6dce98\"><h1 style=\"background-color:MediumSeaGreen\" >You won a prize! Well done!</h1><div style=\"background-color:#6dce98\"><h1 style=\"background-color:MediumSeaGreen\" >Only 4 left to go!</h1><img id=\"box\" src=\"img/prizes/coins.png\"></img><img id=\"box\" src=\"img/empty/greenopenbox.png\"></img></div>","key_press":null,"trial_type":"html-keyboard-response","trial_index":77,"time_elapsed":476728,"internal_node_id":"0.0-19.26-1.26"},{"rt":342.61500000138767,"stimulus":"<p>Choose a box,</p>","button_pressed":1,"trial_type":"html-button-response","trial_index":78,"time_elapsed":477074,"internal_node_id":"0.0-19.27-0.27"},{"rate":0.3295677804498242,"trial_type":"html-keyboard-response","trial_index":79,"time_elapsed":477074,"internal_node_id":"0.0-19.27-1.27"},{"rt":null,"stimulus":"<div style=\"background-color:#6dce98\"><h1 style=\"background-color:MediumSeaGreen\" >You won a prize! Well done!</h1><div style=\"background-color:#6dce98\"><h1 style=\"background-color:MediumSeaGreen\" >Only 3 left to go!</h1><img id=\"box\" src=\"img/prizes/bear.png\"></img><img id=\"box\" src=\"img/empty/greenopenbox.png\"></img></div>","key_press":null,"trial_type":"html-keyboard-response","trial_index":79,"time_elapsed":478580,"internal_node_id":"0.0-19.27-1.27"},{"rt":346.42499999608845,"stimulus":"<p>Choose a box,</p>","button_pressed":1,"trial_type":"html-button-response","trial_index":80,"time_elapsed":478930,"internal_node_id":"0.0-19.28-0.28"},{"rate":0.3295677804498242,"trial_type":"html-keyboard-response","trial_index":81,"time_elapsed":478930,"internal_node_id":"0.0-19.28-1.28"},{"rt":null,"stimulus":"<div style=\"background-color:#ff7157\"><h1 style=\"background-color:Tomato\">Bad luck! There was no prize in the box!</h1><h1 style=\"background-color:Tomato\">Remember, you need to keep going until you have 20 prizes!</h1><img id=\"box\" src=\"img/sad/greenopenboxsadthumb.png\"></img></div>","key_press":null,"trial_type":"html-keyboard-response","trial_index":81,"time_elapsed":480432,"internal_node_id":"0.0-19.28-1.28"},{"rt":509.56500000029337,"stimulus":"<p>Choose a box,</p>","button_pressed":2,"trial_type":"html-button-response","trial_index":82,"time_elapsed":480946,"internal_node_id":"0.0-19.29-0.29"},{"rate":0.49061140700856143,"trial_type":"html-keyboard-response","trial_index":83,"time_elapsed":480946,"internal_node_id":"0.0-19.29-1.29"},{"rt":null,"stimulus":"<div style=\"background-color:#ff7157\"><h1 style=\"background-color:Tomato\">Bad luck! There was no prize in the box!</h1><h1 style=\"background-color:Tomato\">Remember, you need to keep going until you have 20 prizes!</h1><img id=\"box\" src=\"img/sad/purpleopenboxsadthumb.png\"></img></div>","key_press":null,"trial_type":"html-keyboard-response","trial_index":83,"time_elapsed":482463,"internal_node_id":"0.0-19.29-1.29"},{"rt":400.3450000018347,"stimulus":"<p>Choose a box,</p>","button_pressed":3,"trial_type":"html-button-response","trial_index":84,"time_elapsed":482866,"internal_node_id":"0.0-19.30-0.30"},{"rate":0.9015221666944735,"trial_type":"html-keyboard-response","trial_index":85,"time_elapsed":482866,"internal_node_id":"0.0-19.30-1.30"},{"rt":null,"stimulus":"<div style=\"background-color:#ff7157\"><h1 style=\"background-color:Tomato\">Bad luck! There was no prize in the box!</h1><h1 style=\"background-color:Tomato\">Remember, you need to keep going until you have 20 prizes!</h1><img id=\"box\" src=\"img/sad/redopenboxsadthumb.png\"></img></div>","key_press":null,"trial_type":"html-keyboard-response","trial_index":85,"time_elapsed":484368,"internal_node_id":"0.0-19.30-1.30"},{"rt":349.0299999975832,"stimulus":"<p>Choose a box,</p>","button_pressed":0,"trial_type":"html-button-response","trial_index":86,"time_elapsed":484722,"internal_node_id":"0.0-19.31-0.31"},{"rate":0.054840003301800014,"trial_type":"html-keyboard-response","trial_index":87,"time_elapsed":484722,"internal_node_id":"0.0-19.31-1.31"},{"rt":null,"stimulus":"<div style=\"background-color:#6dce98\"><h1 style=\"background-color:MediumSeaGreen\" >You won a prize! Well done!</h1><div style=\"background-color:#6dce98\"><h1 style=\"background-color:MediumSeaGreen\" >Only 2 left to go!</h1><img id=\"box\" src=\"img/prizes/yoyo.png\"></img><img id=\"box\" src=\"img/empty/blueopenbox.png\"></img></div>","key_press":null,"trial_type":"html-keyboard-response","trial_index":87,"time_elapsed":486224,"internal_node_id":"0.0-19.31-1.31"},{"rt":342.400000008638,"stimulus":"<p>Choose a box,</p>","button_pressed":0,"trial_type":"html-button-response","trial_index":88,"time_elapsed":486570,"internal_node_id":"0.0-19.32-0.32"},{"rate":0.054840003301800014,"trial_type":"html-keyboard-response","trial_index":89,"time_elapsed":486570,"internal_node_id":"0.0-19.32-1.32"},{"rt":null,"stimulus":"<div style=\"background-color:#ff7157\"><h1 style=\"background-color:Tomato\">Bad luck! There was no prize in the box!</h1><h1 style=\"background-color:Tomato\">Remember, you need to keep going until you have 20 prizes!</h1><img id=\"box\" src=\"img/sad/blueopenboxsadthumb.png\"></img></div>","key_press":null,"trial_type":"html-keyboard-response","trial_index":89,"time_elapsed":488072,"internal_node_id":"0.0-19.32-1.32"},{"rt":596.7649999947753,"stimulus":"<p>Choose a box,</p>","button_pressed":2,"trial_type":"html-button-response","trial_index":90,"time_elapsed":488674,"internal_node_id":"0.0-19.33-0.33"},{"rate":0.49061140700856143,"trial_type":"html-keyboard-response","trial_index":91,"time_elapsed":488674,"internal_node_id":"0.0-19.33-1.33"},{"rt":null,"stimulus":"<div style=\"background-color:#6dce98\"><h1 style=\"background-color:MediumSeaGreen\" >You won a prize! Well done!</h1><div style=\"background-color:#6dce98\"><h1 style=\"background-color:MediumSeaGreen\" >Only 1 left to go!</h1><img id=\"box\" src=\"img/prizes/beachball.png\"></img><img id=\"box\" src=\"img/empty/purpleopenbox.png\"></img></div>","key_press":null,"trial_type":"html-keyboard-response","trial_index":91,"time_elapsed":490178,"internal_node_id":"0.0-19.33-1.33"},{"rt":354.429999992135,"stimulus":"<p>Choose a box,</p>","button_pressed":2,"trial_type":"html-button-response","trial_index":92,"time_elapsed":490538,"internal_node_id":"0.0-19.34-0.34"},{"rate":0.49061140700856143,"trial_type":"html-keyboard-response","trial_index":93,"time_elapsed":490538,"internal_node_id":"0.0-19.34-1.34"},{"rt":null,"stimulus":"<div style=\"background-color:#ff7157\"><h1 style=\"background-color:Tomato\">Bad luck! There was no prize in the box!</h1><h1 style=\"background-color:Tomato\">Remember, you need to keep going until you have 20 prizes!</h1><img id=\"box\" src=\"img/sad/purpleopenboxsadthumb.png\"></img></div>","key_press":null,"trial_type":"html-keyboard-response","trial_index":93,"time_elapsed":492047,"internal_node_id":"0.0-19.34-1.34"},{"rt":337.2850000014296,"stimulus":"<p>Choose a box,</p>","button_pressed":1,"trial_type":"html-button-response","trial_index":94,"time_elapsed":492387,"internal_node_id":"0.0-19.35-0.35"},{"rate":0.3295677804498242,"trial_type":"html-keyboard-response","trial_index":95,"time_elapsed":492387,"internal_node_id":"0.0-19.35-1.35"},{"rt":null,"stimulus":"<div style=\"background-color:#ff7157\"><h1 style=\"background-color:Tomato\">Bad luck! There was no prize in the box!</h1><h1 style=\"background-color:Tomato\">Remember, you need to keep going until you have 20 prizes!</h1><img id=\"box\" src=\"img/sad/greenopenboxsadthumb.png\"></img></div>","key_press":null,"trial_type":"html-keyboard-response","trial_index":95,"time_elapsed":493889,"internal_node_id":"0.0-19.35-1.35"},{"rt":317.8699999989476,"stimulus":"<p>Choose a box,</p>","button_pressed":3,"trial_type":"html-button-response","trial_index":96,"time_elapsed":494210,"internal_node_id":"0.0-19.36-0.36"},{"rate":0.9015221666944735,"trial_type":"html-keyboard-response","trial_index":97,"time_elapsed":494210,"internal_node_id":"0.0-19.36-1.36"},{"rt":null,"stimulus":"<div style=\"background-color:#ff7157\"><h1 style=\"background-color:Tomato\">Bad luck! There was no prize in the box!</h1><h1 style=\"background-color:Tomato\">Remember, you need to keep going until you have 20 prizes!</h1><img id=\"box\" src=\"img/sad/redopenboxsadthumb.png\"></img></div>","key_press":null,"trial_type":"html-keyboard-response","trial_index":97,"time_elapsed":495714,"internal_node_id":"0.0-19.36-1.36"},{"rt":375.37999999767635,"stimulus":"<p>Choose a box,</p>","button_pressed":2,"trial_type":"html-button-response","trial_index":98,"time_elapsed":496091,"internal_node_id":"0.0-19.37-0.37"},{"rate":0.49061140700856143,"trial_type":"html-keyboard-response","trial_index":99,"time_elapsed":496092,"internal_node_id":"0.0-19.37-1.37"},{"rt":null,"stimulus":"<div style=\"background-color:#ff7157\"><h1 style=\"background-color:Tomato\">Bad luck! There was no prize in the box!</h1><h1 style=\"background-color:Tomato\">Remember, you need to keep going until you have 20 prizes!</h1><img id=\"box\" src=\"img/sad/purpleopenboxsadthumb.png\"></img></div>","key_press":null,"trial_type":"html-keyboard-response","trial_index":99,"time_elapsed":497595,"internal_node_id":"0.0-19.37-1.37"},{"rt":315.7800000044517,"stimulus":"<p>Choose a box,</p>","button_pressed":0,"trial_type":"html-button-response","trial_index":100,"time_elapsed":497914,"internal_node_id":"0.0-19.38-0.38"},{"rate":0.054840003301800014,"trial_type":"html-keyboard-response","trial_index":101,"time_elapsed":497914,"internal_node_id":"0.0-19.38-1.38"},{"rt":null,"stimulus":"<div style=\"background-color:#ff7157\"><h1 style=\"background-color:Tomato\">Bad luck! There was no prize in the box!</h1><h1 style=\"background-color:Tomato\">Remember, you need to keep going until you have 20 prizes!</h1><img id=\"box\" src=\"img/sad/blueopenboxsadthumb.png\"></img></div>","key_press":null,"trial_type":"html-keyboard-response","trial_index":101,"time_elapsed":499416,"internal_node_id":"0.0-19.38-1.38"},{"rt":465.81999999762047,"stimulus":"<p>Choose a box,</p>","button_pressed":1,"trial_type":"html-button-response","trial_index":102,"time_elapsed":499883,"internal_node_id":"0.0-19.39-0.39"},{"rate":0.3295677804498242,"trial_type":"html-keyboard-response","trial_index":103,"time_elapsed":499883,"internal_node_id":"0.0-19.39-1.39"},{"rt":null,"stimulus":"<div style=\"background-color:#6dce98\"><h1 style=\"background-color:MediumSeaGreen\" >You won a prize! Well done!</h1><div style=\"background-color:#6dce98\"><h1 style=\"background-color:MediumSeaGreen\" >Only 0 left to go!</h1><img id=\"box\" src=\"img/prizes/beachball.png\"></img><img id=\"box\" src=\"img/empty/greenopenbox.png\"></img></div>","key_press":null,"trial_type":"html-keyboard-response","trial_index":103,"time_elapsed":501385,"internal_node_id":"0.0-19.39-1.39"},{"rt":154215.38000000874,"responses":"{\"Q0\":\"i noticed that i was kind of emotionally overwhelmed after the psychological questions and the results in the boxes kinda affected me. \",\"Q1\":\"if a box revealed a prize i would choose it again and again until there wasnt any prize. the next box would be that with the most prizes in it the most of the times etc\"}","trial_type":"survey-text","trial_index":104,"time_elapsed":655652,"internal_node_id":"0.0-20.0"}]