[{"view_history":"[{\"page_index\":0,\"viewing_time\":15321},{\"page_index\":1,\"viewing_time\":7027},{\"page_index\":2,\"viewing_time\":11739},{\"page_index\":3,\"viewing_time\":8016.000000000007},{\"page_index\":4,\"viewing_time\":2203.9999999999927},{\"page_index\":5,\"viewing_time\":4699}]","rt":49010,"trial_type":"instructions","trial_index":0,"time_elapsed":49014,"internal_node_id":"0.0-0.0"},{"rt":12319,"responses":"{\"Q0\":\"Yes\",\"Q1\":\"Yes\",\"Q2\":\"Yes\"}","question_order":"[0,1,2]","trial_type":"survey-multi-choice","trial_index":1,"time_elapsed":61346,"internal_node_id":"0.0-1.0-0.0"},{"rt":8305.000000000015,"responses":"{\"Q0\":\"Yes\",\"Q1\":\"Yes\",\"Q2\":\"Yes\"}","question_order":"[0,1,2]","trial_type":"survey-multi-choice","trial_index":2,"time_elapsed":69656,"internal_node_id":"0.0-2.0-0.0"},{"rt":10686,"responses":"{\"Q0\":\"5e8ef314c75edb1b4a451a7f\"}","trial_type":"survey-text","trial_index":3,"time_elapsed":80373,"internal_node_id":"0.0-3.0"},{"rt":9542.000000000015,"responses":"{\"Q0\":\"Female\",\"Q1\":\"18-25\"}","question_order":"[0,1]","trial_type":"survey-multi-choice","trial_index":4,"time_elapsed":89925,"internal_node_id":"0.0-4.0"},{"rt":4099,"responses":"{\"Q0\":\"\"}","trial_type":"survey-text","trial_index":5,"time_elapsed":94046,"internal_node_id":"0.0-5.0"},{"view_history":"[{\"page_index\":0,\"viewing_time\":3761.9999999999854}]","rt":3763.9999999999854,"trial_type":"instructions","trial_index":6,"time_elapsed":97812,"internal_node_id":"0.0-6.0"},{"rt":31153,"responses":"{\"Interested\":1,\"Distressed\":2,\"Excited\":0,\"Upset\":3}","question_order":"[0,1,2,3]","trial_type":"survey-likert","trial_index":7,"time_elapsed":128972,"internal_node_id":"0.0-7.0"},{"rt":19648,"responses":"{\"Strong\":0,\"Guilty\":2,\"Scared\":0,\"Hostile\":2}","question_order":"[0,1,2,3]","trial_type":"survey-likert","trial_index":8,"time_elapsed":148599,"internal_node_id":"0.0-8.0"},{"rt":18194.99999999997,"responses":"{\"Enthusiastic\":0,\"Proud\":1,\"Irritable\":3,\"Alert\":0}","question_order":"[0,1,2,3]","trial_type":"survey-likert","trial_index":9,"time_elapsed":166787,"internal_node_id":"0.0-9.0"},{"rt":15277,"responses":"{\"Ashamed\":2,\"Inspired\":1,\"Nervous\":4,\"Determined\":0}","question_order":"[0,1,2,3]","trial_type":"survey-likert","trial_index":10,"time_elapsed":182068,"internal_node_id":"0.0-10.0"},{"rt":48327.00000000003,"responses":"{\"Attentive\":2,\"Jittery\":2,\"Active\":0,\"Afraid\":0}","question_order":"[0,1,2,3]","trial_type":"survey-likert","trial_index":11,"time_elapsed":230401,"internal_node_id":"0.0-11.0"},{"rt":14995,"responses":"{\"Q0\":3,\"Q1\":3,\"Q2\":2,\"Q3\":3}","question_order":"[0,1,2,3]","trial_type":"survey-likert","trial_index":12,"time_elapsed":245403,"internal_node_id":"0.0-12.0"},{"rt":17960,"responses":"{\"Q0\":1,\"Q1\":3,\"Q2\":3,\"Q3\":0}","question_order":"[0,1,2,3]","trial_type":"survey-likert","trial_index":13,"time_elapsed":263368,"internal_node_id":"0.0-13.0"},{"rt":12719,"responses":"{\"Q0\":2,\"Q1\":2,\"Q2\":3,\"Q3\":2}","question_order":"[0,1,2,3]","trial_type":"survey-likert","trial_index":14,"time_elapsed":276091,"internal_node_id":"0.0-14.0"},{"rt":6427,"responses":"{\"Q0\":0,\"Q1\":1,\"Q2\":0}","question_order":"[0,1,2]","trial_type":"survey-likert","trial_index":15,"time_elapsed":282522,"internal_node_id":"0.0-15.0"},{"view_history":"[{\"page_index\":0,\"viewing_time\":2098},{\"page_index\":1,\"viewing_time\":15097},{\"page_index\":2,\"viewing_time\":7151}]","rt":24347,"trial_type":"instructions","trial_index":16,"time_elapsed":306879,"internal_node_id":"0.0-16.0"},{"rt":10306,"stimulus":"<p>Choose a box,</p>","button_pressed":0,"trial_type":"html-button-response","trial_index":17,"time_elapsed":317188,"internal_node_id":"0.0-17.0-0.0"},{"rate":0.09345775620126372,"trial_type":"html-keyboard-response","trial_index":18,"time_elapsed":317188,"internal_node_id":"0.0-17.0-1.0"},{"rt":null,"stimulus":"<div style=\"background-color:#ff7157\"><h1 style=\"background-color:Tomato\">Bad luck! There was no prize in the box!</h1><h1 style=\"background-color:Tomato\">Remember, you need to keep going until you have 20 prizes!</h1><img id=\"box\" src=\"img/sad/blueopenboxsadthumb.png\"></img></div>","key_press":null,"trial_type":"html-keyboard-response","trial_index":18,"time_elapsed":318696,"internal_node_id":"0.0-17.0-1.0"},{"rt":6611,"stimulus":"<p>Choose a box,</p>","button_pressed":1,"trial_type":"html-button-response","trial_index":19,"time_elapsed":325311,"internal_node_id":"0.0-17.0-0.1"},{"rate":0.5796022115996191,"trial_type":"html-keyboard-response","trial_index":20,"time_elapsed":325311,"internal_node_id":"0.0-17.0-1.1"},{"rt":null,"stimulus":"<div style=\"background-color:#ff7157\"><h1 style=\"background-color:Tomato\">Bad luck! There was no prize in the box!</h1><h1 style=\"background-color:Tomato\">Remember, you need to keep going until you have 20 prizes!</h1><img id=\"box\" src=\"img/sad/greenopenboxsadthumb.png\"></img></div>","key_press":null,"trial_type":"html-keyboard-response","trial_index":20,"time_elapsed":326815,"internal_node_id":"0.0-17.0-1.1"},{"rt":3158,"stimulus":"<p>Choose a box,</p>","button_pressed":0,"trial_type":"html-button-response","trial_index":21,"time_elapsed":329978,"internal_node_id":"0.0-17.0-0.2"},{"rate":0.09345775620126372,"trial_type":"html-keyboard-response","trial_index":22,"time_elapsed":329978,"internal_node_id":"0.0-17.0-1.2"},{"rt":null,"stimulus":"<div style=\"background-color:#ff7157\"><h1 style=\"background-color:Tomato\">Bad luck! There was no prize in the box!</h1><h1 style=\"background-color:Tomato\">Remember, you need to keep going until you have 20 prizes!</h1><img id=\"box\" src=\"img/sad/blueopenboxsadthumb.png\"></img></div>","key_press":null,"trial_type":"html-keyboard-response","trial_index":22,"time_elapsed":331483,"internal_node_id":"0.0-17.0-1.2"},{"view_history":"[{\"page_index\":0,\"viewing_time\":6405}]","rt":6405,"trial_type":"instructions","trial_index":23,"time_elapsed":337897,"internal_node_id":"0.0-18.0"},{"rt":1562.9999999999418,"stimulus":"<p>Choose a box,</p>","button_pressed":0,"trial_type":"html-button-response","trial_index":24,"time_elapsed":339463,"internal_node_id":"0.0-19.0-0.0"},{"rate":0.5922424211628733,"trial_type":"html-keyboard-response","trial_index":25,"time_elapsed":339464,"internal_node_id":"0.0-19.0-1.0"},{"rt":null,"stimulus":"<div style=\"background-color:#6dce98\"><h1 style=\"background-color:MediumSeaGreen\" >You won a prize! Well done!</h1><div style=\"background-color:#6dce98\"><h1 style=\"background-color:MediumSeaGreen\" >Only 19 left to go!</h1><img id=\"box\" src=\"img/prizes/bear.png\"></img><img id=\"box\" src=\"img/empty/blueopenbox.png\"></img></div>","key_press":null,"trial_type":"html-keyboard-response","trial_index":25,"time_elapsed":340968,"internal_node_id":"0.0-19.0-1.0"},{"rt":2411,"stimulus":"<p>Choose a box,</p>","button_pressed":1,"trial_type":"html-button-response","trial_index":26,"time_elapsed":343382,"internal_node_id":"0.0-19.1-0.1"},{"rate":0.28402773880631654,"trial_type":"html-keyboard-response","trial_index":27,"time_elapsed":343383,"internal_node_id":"0.0-19.1-1.1"},{"rt":null,"stimulus":"<div style=\"background-color:#ff7157\"><h1 style=\"background-color:Tomato\">Bad luck! There was no prize in the box!</h1><h1 style=\"background-color:Tomato\">Remember, you need to keep going until you have 20 prizes!</h1><img id=\"box\" src=\"img/sad/greenopenboxsadthumb.png\"></img></div>","key_press":null,"trial_type":"html-keyboard-response","trial_index":27,"time_elapsed":344886,"internal_node_id":"0.0-19.1-1.1"},{"rt":1258,"stimulus":"<p>Choose a box,</p>","button_pressed":0,"trial_type":"html-button-response","trial_index":28,"time_elapsed":346147,"internal_node_id":"0.0-19.2-0.2"},{"rate":0.5922424211628733,"trial_type":"html-keyboard-response","trial_index":29,"time_elapsed":346148,"internal_node_id":"0.0-19.2-1.2"},{"rt":null,"stimulus":"<div style=\"background-color:#ff7157\"><h1 style=\"background-color:Tomato\">Bad luck! There was no prize in the box!</h1><h1 style=\"background-color:Tomato\">Remember, you need to keep going until you have 20 prizes!</h1><img id=\"box\" src=\"img/sad/blueopenboxsadthumb.png\"></img></div>","key_press":null,"trial_type":"html-keyboard-response","trial_index":29,"time_elapsed":347651,"internal_node_id":"0.0-19.2-1.2"},{"rt":910,"stimulus":"<p>Choose a box,</p>","button_pressed":0,"trial_type":"html-button-response","trial_index":30,"time_elapsed":348562,"internal_node_id":"0.0-19.3-0.3"},{"rate":0.5922424211628733,"trial_type":"html-keyboard-response","trial_index":31,"time_elapsed":348562,"internal_node_id":"0.0-19.3-1.3"},{"rt":null,"stimulus":"<div style=\"background-color:#6dce98\"><h1 style=\"background-color:MediumSeaGreen\" >You won a prize! Well done!</h1><div style=\"background-color:#6dce98\"><h1 style=\"background-color:MediumSeaGreen\" >Only 18 left to go!</h1><img id=\"box\" src=\"img/prizes/bear.png\"></img><img id=\"box\" src=\"img/empty/blueopenbox.png\"></img></div>","key_press":null,"trial_type":"html-keyboard-response","trial_index":31,"time_elapsed":350065,"internal_node_id":"0.0-19.3-1.3"},{"rt":1349,"stimulus":"<p>Choose a box,</p>","button_pressed":0,"trial_type":"html-button-response","trial_index":32,"time_elapsed":351416,"internal_node_id":"0.0-19.4-0.4"},{"rate":0.5922424211628733,"trial_type":"html-keyboard-response","trial_index":33,"time_elapsed":351416,"internal_node_id":"0.0-19.4-1.4"},{"rt":null,"stimulus":"<div style=\"background-color:#ff7157\"><h1 style=\"background-color:Tomato\">Bad luck! There was no prize in the box!</h1><h1 style=\"background-color:Tomato\">Remember, you need to keep going until you have 20 prizes!</h1><img id=\"box\" src=\"img/sad/blueopenboxsadthumb.png\"></img></div>","key_press":null,"trial_type":"html-keyboard-response","trial_index":33,"time_elapsed":352919,"internal_node_id":"0.0-19.4-1.4"},{"rt":1257,"stimulus":"<p>Choose a box,</p>","button_pressed":0,"trial_type":"html-button-response","trial_index":34,"time_elapsed":354179,"internal_node_id":"0.0-19.5-0.5"},{"rate":0.5922424211628733,"trial_type":"html-keyboard-response","trial_index":35,"time_elapsed":354180,"internal_node_id":"0.0-19.5-1.5"},{"rt":null,"stimulus":"<div style=\"background-color:#ff7157\"><h1 style=\"background-color:Tomato\">Bad luck! There was no prize in the box!</h1><h1 style=\"background-color:Tomato\">Remember, you need to keep going until you have 20 prizes!</h1><img id=\"box\" src=\"img/sad/blueopenboxsadthumb.png\"></img></div>","key_press":null,"trial_type":"html-keyboard-response","trial_index":35,"time_elapsed":355685,"internal_node_id":"0.0-19.5-1.5"},{"rt":2610,"stimulus":"<p>Choose a box,</p>","button_pressed":0,"trial_type":"html-button-response","trial_index":36,"time_elapsed":358297,"internal_node_id":"0.0-19.6-0.6"},{"rate":0.5922424211628733,"trial_type":"html-keyboard-response","trial_index":37,"time_elapsed":358298,"internal_node_id":"0.0-19.6-1.6"},{"rt":null,"stimulus":"<div style=\"background-color:#6dce98\"><h1 style=\"background-color:MediumSeaGreen\" >You won a prize! Well done!</h1><div style=\"background-color:#6dce98\"><h1 style=\"background-color:MediumSeaGreen\" >Only 17 left to go!</h1><img id=\"box\" src=\"img/prizes/lolipop.png\"></img><img id=\"box\" src=\"img/empty/blueopenbox.png\"></img></div>","key_press":null,"trial_type":"html-keyboard-response","trial_index":37,"time_elapsed":359801,"internal_node_id":"0.0-19.6-1.6"},{"rt":2225,"stimulus":"<p>Choose a box,</p>","button_pressed":1,"trial_type":"html-button-response","trial_index":38,"time_elapsed":362029,"internal_node_id":"0.0-19.7-0.7"},{"rate":0.28402773880631654,"trial_type":"html-keyboard-response","trial_index":39,"time_elapsed":362030,"internal_node_id":"0.0-19.7-1.7"},{"rt":null,"stimulus":"<div style=\"background-color:#ff7157\"><h1 style=\"background-color:Tomato\">Bad luck! There was no prize in the box!</h1><h1 style=\"background-color:Tomato\">Remember, you need to keep going until you have 20 prizes!</h1><img id=\"box\" src=\"img/sad/greenopenboxsadthumb.png\"></img></div>","key_press":null,"trial_type":"html-keyboard-response","trial_index":39,"time_elapsed":363534,"internal_node_id":"0.0-19.7-1.7"},{"rt":1012,"stimulus":"<p>Choose a box,</p>","button_pressed":0,"trial_type":"html-button-response","trial_index":40,"time_elapsed":364548,"internal_node_id":"0.0-19.8-0.8"},{"rate":0.5922424211628733,"trial_type":"html-keyboard-response","trial_index":41,"time_elapsed":364549,"internal_node_id":"0.0-19.8-1.8"},{"rt":null,"stimulus":"<div style=\"background-color:#6dce98\"><h1 style=\"background-color:MediumSeaGreen\" >You won a prize! Well done!</h1><div style=\"background-color:#6dce98\"><h1 style=\"background-color:MediumSeaGreen\" >Only 16 left to go!</h1><img id=\"box\" src=\"img/prizes/yoyo.png\"></img><img id=\"box\" src=\"img/empty/blueopenbox.png\"></img></div>","key_press":null,"trial_type":"html-keyboard-response","trial_index":41,"time_elapsed":366052,"internal_node_id":"0.0-19.8-1.8"},{"rt":1042.0000000000582,"stimulus":"<p>Choose a box,</p>","button_pressed":0,"trial_type":"html-button-response","trial_index":42,"time_elapsed":367097,"internal_node_id":"0.0-19.9-0.9"},{"rate":0.5922424211628733,"trial_type":"html-keyboard-response","trial_index":43,"time_elapsed":367097,"internal_node_id":"0.0-19.9-1.9"},{"rt":null,"stimulus":"<div style=\"background-color:#ff7157\"><h1 style=\"background-color:Tomato\">Bad luck! There was no prize in the box!</h1><h1 style=\"background-color:Tomato\">Remember, you need to keep going until you have 20 prizes!</h1><img id=\"box\" src=\"img/sad/blueopenboxsadthumb.png\"></img></div>","key_press":null,"trial_type":"html-keyboard-response","trial_index":43,"time_elapsed":368600,"internal_node_id":"0.0-19.9-1.9"},{"rt":1079,"stimulus":"<p>Choose a box,</p>","button_pressed":0,"trial_type":"html-button-response","trial_index":44,"time_elapsed":369682,"internal_node_id":"0.0-19.10-0.10"},{"rate":0.5922424211628733,"trial_type":"html-keyboard-response","trial_index":45,"time_elapsed":369684,"internal_node_id":"0.0-19.10-1.10"},{"rt":null,"stimulus":"<div style=\"background-color:#6dce98\"><h1 style=\"background-color:MediumSeaGreen\" >You won a prize! Well done!</h1><div style=\"background-color:#6dce98\"><h1 style=\"background-color:MediumSeaGreen\" >Only 15 left to go!</h1><img id=\"box\" src=\"img/prizes/choc.png\"></img><img id=\"box\" src=\"img/empty/blueopenbox.png\"></img></div>","key_press":null,"trial_type":"html-keyboard-response","trial_index":45,"time_elapsed":371188,"internal_node_id":"0.0-19.10-1.10"},{"rt":1274,"stimulus":"<p>Choose a box,</p>","button_pressed":0,"trial_type":"html-button-response","trial_index":46,"time_elapsed":372465,"internal_node_id":"0.0-19.11-0.11"},{"rate":0.5922424211628733,"trial_type":"html-keyboard-response","trial_index":47,"time_elapsed":372466,"internal_node_id":"0.0-19.11-1.11"},{"rt":null,"stimulus":"<div style=\"background-color:#ff7157\"><h1 style=\"background-color:Tomato\">Bad luck! There was no prize in the box!</h1><h1 style=\"background-color:Tomato\">Remember, you need to keep going until you have 20 prizes!</h1><img id=\"box\" src=\"img/sad/blueopenboxsadthumb.png\"></img></div>","key_press":null,"trial_type":"html-keyboard-response","trial_index":47,"time_elapsed":373970,"internal_node_id":"0.0-19.11-1.11"},{"rt":908,"stimulus":"<p>Choose a box,</p>","button_pressed":0,"trial_type":"html-button-response","trial_index":48,"time_elapsed":374882,"internal_node_id":"0.0-19.12-0.12"},{"rate":0.5922424211628733,"trial_type":"html-keyboard-response","trial_index":49,"time_elapsed":374883,"internal_node_id":"0.0-19.12-1.12"},{"rt":null,"stimulus":"<div style=\"background-color:#ff7157\"><h1 style=\"background-color:Tomato\">Bad luck! There was no prize in the box!</h1><h1 style=\"background-color:Tomato\">Remember, you need to keep going until you have 20 prizes!</h1><img id=\"box\" src=\"img/sad/blueopenboxsadthumb.png\"></img></div>","key_press":null,"trial_type":"html-keyboard-response","trial_index":49,"time_elapsed":376387,"internal_node_id":"0.0-19.12-1.12"},{"rt":972,"stimulus":"<p>Choose a box,</p>","button_pressed":0,"trial_type":"html-button-response","trial_index":50,"time_elapsed":377362,"internal_node_id":"0.0-19.13-0.13"},{"rate":0.5922424211628733,"trial_type":"html-keyboard-response","trial_index":51,"time_elapsed":377362,"internal_node_id":"0.0-19.13-1.13"},{"rt":null,"stimulus":"<div style=\"background-color:#ff7157\"><h1 style=\"background-color:Tomato\">Bad luck! There was no prize in the box!</h1><h1 style=\"background-color:Tomato\">Remember, you need to keep going until you have 20 prizes!</h1><img id=\"box\" src=\"img/sad/blueopenboxsadthumb.png\"></img></div>","key_press":null,"trial_type":"html-keyboard-response","trial_index":51,"time_elapsed":378865,"internal_node_id":"0.0-19.13-1.13"},{"rt":929,"stimulus":"<p>Choose a box,</p>","button_pressed":1,"trial_type":"html-button-response","trial_index":52,"time_elapsed":379796,"internal_node_id":"0.0-19.14-0.14"},{"rate":0.28402773880631654,"trial_type":"html-keyboard-response","trial_index":53,"time_elapsed":379797,"internal_node_id":"0.0-19.14-1.14"},{"rt":null,"stimulus":"<div style=\"background-color:#ff7157\"><h1 style=\"background-color:Tomato\">Bad luck! There was no prize in the box!</h1><h1 style=\"background-color:Tomato\">Remember, you need to keep going until you have 20 prizes!</h1><img id=\"box\" src=\"img/sad/greenopenboxsadthumb.png\"></img></div>","key_press":null,"trial_type":"html-keyboard-response","trial_index":53,"time_elapsed":381300,"internal_node_id":"0.0-19.14-1.14"},{"rt":1045,"stimulus":"<p>Choose a box,</p>","button_pressed":0,"trial_type":"html-button-response","trial_index":54,"time_elapsed":382346,"internal_node_id":"0.0-19.15-0.15"},{"rate":0.5922424211628733,"trial_type":"html-keyboard-response","trial_index":55,"time_elapsed":382347,"internal_node_id":"0.0-19.15-1.15"},{"rt":null,"stimulus":"<div style=\"background-color:#ff7157\"><h1 style=\"background-color:Tomato\">Bad luck! There was no prize in the box!</h1><h1 style=\"background-color:Tomato\">Remember, you need to keep going until you have 20 prizes!</h1><img id=\"box\" src=\"img/sad/blueopenboxsadthumb.png\"></img></div>","key_press":null,"trial_type":"html-keyboard-response","trial_index":55,"time_elapsed":383849,"internal_node_id":"0.0-19.15-1.15"},{"rt":3228.999999999942,"stimulus":"<p>Choose a box,</p>","button_pressed":0,"trial_type":"html-button-response","trial_index":56,"time_elapsed":387080,"internal_node_id":"0.0-19.16-0.16"},{"rate":0.5922424211628733,"trial_type":"html-keyboard-response","trial_index":57,"time_elapsed":387080,"internal_node_id":"0.0-19.16-1.16"},{"rt":null,"stimulus":"<div style=\"background-color:#6dce98\"><h1 style=\"background-color:MediumSeaGreen\" >You won a prize! Well done!</h1><div style=\"background-color:#6dce98\"><h1 style=\"background-color:MediumSeaGreen\" >Only 14 left to go!</h1><img id=\"box\" src=\"img/prizes/bear.png\"></img><img id=\"box\" src=\"img/empty/blueopenbox.png\"></img></div>","key_press":null,"trial_type":"html-keyboard-response","trial_index":57,"time_elapsed":388583,"internal_node_id":"0.0-19.16-1.16"},{"rt":2629.000000000058,"stimulus":"<p>Choose a box,</p>","button_pressed":2,"trial_type":"html-button-response","trial_index":58,"time_elapsed":391214,"internal_node_id":"0.0-19.17-0.17"},{"rate":0.4443149995509594,"trial_type":"html-keyboard-response","trial_index":59,"time_elapsed":391214,"internal_node_id":"0.0-19.17-1.17"},{"rt":null,"stimulus":"<div style=\"background-color:#ff7157\"><h1 style=\"background-color:Tomato\">Bad luck! There was no prize in the box!</h1><h1 style=\"background-color:Tomato\">Remember, you need to keep going until you have 20 prizes!</h1><img id=\"box\" src=\"img/sad/purpleopenboxsadthumb.png\"></img></div>","key_press":null,"trial_type":"html-keyboard-response","trial_index":59,"time_elapsed":392718,"internal_node_id":"0.0-19.17-1.17"},{"rt":1077,"stimulus":"<p>Choose a box,</p>","button_pressed":0,"trial_type":"html-button-response","trial_index":60,"time_elapsed":393797,"internal_node_id":"0.0-19.18-0.18"},{"rate":0.5922424211628733,"trial_type":"html-keyboard-response","trial_index":61,"time_elapsed":393797,"internal_node_id":"0.0-19.18-1.18"},{"rt":null,"stimulus":"<div style=\"background-color:#ff7157\"><h1 style=\"background-color:Tomato\">Bad luck! There was no prize in the box!</h1><h1 style=\"background-color:Tomato\">Remember, you need to keep going until you have 20 prizes!</h1><img id=\"box\" src=\"img/sad/blueopenboxsadthumb.png\"></img></div>","key_press":null,"trial_type":"html-keyboard-response","trial_index":61,"time_elapsed":395300,"internal_node_id":"0.0-19.18-1.18"},{"rt":1060.9999999999418,"stimulus":"<p>Choose a box,</p>","button_pressed":1,"trial_type":"html-button-response","trial_index":62,"time_elapsed":396364,"internal_node_id":"0.0-19.19-0.19"},{"rate":0.28402773880631654,"trial_type":"html-keyboard-response","trial_index":63,"time_elapsed":396364,"internal_node_id":"0.0-19.19-1.19"},{"rt":null,"stimulus":"<div style=\"background-color:#ff7157\"><h1 style=\"background-color:Tomato\">Bad luck! There was no prize in the box!</h1><h1 style=\"background-color:Tomato\">Remember, you need to keep going until you have 20 prizes!</h1><img id=\"box\" src=\"img/sad/greenopenboxsadthumb.png\"></img></div>","key_press":null,"trial_type":"html-keyboard-response","trial_index":63,"time_elapsed":397867,"internal_node_id":"0.0-19.19-1.19"},{"rt":1044,"stimulus":"<p>Choose a box,</p>","button_pressed":0,"trial_type":"html-button-response","trial_index":64,"time_elapsed":398914,"internal_node_id":"0.0-19.20-0.20"},{"rate":0.5922424211628733,"trial_type":"html-keyboard-response","trial_index":65,"time_elapsed":398914,"internal_node_id":"0.0-19.20-1.20"},{"rt":null,"stimulus":"<div style=\"background-color:#6dce98\"><h1 style=\"background-color:MediumSeaGreen\" >You won a prize! Well done!</h1><div style=\"background-color:#6dce98\"><h1 style=\"background-color:MediumSeaGreen\" >Only 13 left to go!</h1><img id=\"box\" src=\"img/prizes/choc.png\"></img><img id=\"box\" src=\"img/empty/blueopenbox.png\"></img></div>","key_press":null,"trial_type":"html-keyboard-response","trial_index":65,"time_elapsed":400418,"internal_node_id":"0.0-19.20-1.20"},{"rt":1130,"stimulus":"<p>Choose a box,</p>","button_pressed":0,"trial_type":"html-button-response","trial_index":66,"time_elapsed":401550,"internal_node_id":"0.0-19.21-0.21"},{"rate":0.5922424211628733,"trial_type":"html-keyboard-response","trial_index":67,"time_elapsed":401551,"internal_node_id":"0.0-19.21-1.21"},{"rt":null,"stimulus":"<div style=\"background-color:#ff7157\"><h1 style=\"background-color:Tomato\">Bad luck! There was no prize in the box!</h1><h1 style=\"background-color:Tomato\">Remember, you need to keep going until you have 20 prizes!</h1><img id=\"box\" src=\"img/sad/blueopenboxsadthumb.png\"></img></div>","key_press":null,"trial_type":"html-keyboard-response","trial_index":67,"time_elapsed":403055,"internal_node_id":"0.0-19.21-1.21"},{"rt":1093,"stimulus":"<p>Choose a box,</p>","button_pressed":0,"trial_type":"html-button-response","trial_index":68,"time_elapsed":404150,"internal_node_id":"0.0-19.22-0.22"},{"rate":0.5922424211628733,"trial_type":"html-keyboard-response","trial_index":69,"time_elapsed":404151,"internal_node_id":"0.0-19.22-1.22"},{"rt":null,"stimulus":"<div style=\"background-color:#ff7157\"><h1 style=\"background-color:Tomato\">Bad luck! There was no prize in the box!</h1><h1 style=\"background-color:Tomato\">Remember, you need to keep going until you have 20 prizes!</h1><img id=\"box\" src=\"img/sad/blueopenboxsadthumb.png\"></img></div>","key_press":null,"trial_type":"html-keyboard-response","trial_index":69,"time_elapsed":405653,"internal_node_id":"0.0-19.22-1.22"},{"rt":1076.0000000000582,"stimulus":"<p>Choose a box,</p>","button_pressed":1,"trial_type":"html-button-response","trial_index":70,"time_elapsed":406733,"internal_node_id":"0.0-19.23-0.23"},{"rate":0.28402773880631654,"trial_type":"html-keyboard-response","trial_index":71,"time_elapsed":406733,"internal_node_id":"0.0-19.23-1.23"},{"rt":null,"stimulus":"<div style=\"background-color:#6dce98\"><h1 style=\"background-color:MediumSeaGreen\" >You won a prize! Well done!</h1><div style=\"background-color:#6dce98\"><h1 style=\"background-color:MediumSeaGreen\" >Only 12 left to go!</h1><img id=\"box\" src=\"img/prizes/duck.png\"></img><img id=\"box\" src=\"img/empty/greenopenbox.png\"></img></div>","key_press":null,"trial_type":"html-keyboard-response","trial_index":71,"time_elapsed":408238,"internal_node_id":"0.0-19.23-1.23"},{"rt":1074.0000000000582,"stimulus":"<p>Choose a box,</p>","button_pressed":0,"trial_type":"html-button-response","trial_index":72,"time_elapsed":409314,"internal_node_id":"0.0-19.24-0.24"},{"rate":0.5922424211628733,"trial_type":"html-keyboard-response","trial_index":73,"time_elapsed":409315,"internal_node_id":"0.0-19.24-1.24"},{"rt":null,"stimulus":"<div style=\"background-color:#6dce98\"><h1 style=\"background-color:MediumSeaGreen\" >You won a prize! Well done!</h1><div style=\"background-color:#6dce98\"><h1 style=\"background-color:MediumSeaGreen\" >Only 11 left to go!</h1><img id=\"box\" src=\"img/prizes/choc.png\"></img><img id=\"box\" src=\"img/empty/blueopenbox.png\"></img></div>","key_press":null,"trial_type":"html-keyboard-response","trial_index":73,"time_elapsed":410819,"internal_node_id":"0.0-19.24-1.24"},{"rt":2194.999999999942,"stimulus":"<p>Choose a box,</p>","button_pressed":0,"trial_type":"html-button-response","trial_index":74,"time_elapsed":413017,"internal_node_id":"0.0-19.25-0.25"},{"rate":0.5922424211628733,"trial_type":"html-keyboard-response","trial_index":75,"time_elapsed":413017,"internal_node_id":"0.0-19.25-1.25"},{"rt":null,"stimulus":"<div style=\"background-color:#6dce98\"><h1 style=\"background-color:MediumSeaGreen\" >You won a prize! Well done!</h1><div style=\"background-color:#6dce98\"><h1 style=\"background-color:MediumSeaGreen\" >Only 10 left to go!</h1><img id=\"box\" src=\"img/prizes/flowers.png\"></img><img id=\"box\" src=\"img/empty/blueopenbox.png\"></img></div>","key_press":null,"trial_type":"html-keyboard-response","trial_index":75,"time_elapsed":414520,"internal_node_id":"0.0-19.25-1.25"},{"rt":1508,"stimulus":"<p>Choose a box,</p>","button_pressed":1,"trial_type":"html-button-response","trial_index":76,"time_elapsed":416033,"internal_node_id":"0.0-19.26-0.26"},{"rate":0.28402773880631654,"trial_type":"html-keyboard-response","trial_index":77,"time_elapsed":416033,"internal_node_id":"0.0-19.26-1.26"},{"rt":null,"stimulus":"<div style=\"background-color:#ff7157\"><h1 style=\"background-color:Tomato\">Bad luck! There was no prize in the box!</h1><h1 style=\"background-color:Tomato\">Remember, you need to keep going until you have 20 prizes!</h1><img id=\"box\" src=\"img/sad/greenopenboxsadthumb.png\"></img></div>","key_press":null,"trial_type":"html-keyboard-response","trial_index":77,"time_elapsed":417538,"internal_node_id":"0.0-19.26-1.26"},{"rt":860,"stimulus":"<p>Choose a box,</p>","button_pressed":0,"trial_type":"html-button-response","trial_index":78,"time_elapsed":418399,"internal_node_id":"0.0-19.27-0.27"},{"rate":0.5922424211628733,"trial_type":"html-keyboard-response","trial_index":79,"time_elapsed":418400,"internal_node_id":"0.0-19.27-1.27"},{"rt":null,"stimulus":"<div style=\"background-color:#ff7157\"><h1 style=\"background-color:Tomato\">Bad luck! There was no prize in the box!</h1><h1 style=\"background-color:Tomato\">Remember, you need to keep going until you have 20 prizes!</h1><img id=\"box\" src=\"img/sad/blueopenboxsadthumb.png\"></img></div>","key_press":null,"trial_type":"html-keyboard-response","trial_index":79,"time_elapsed":419902,"internal_node_id":"0.0-19.27-1.27"},{"rt":996,"stimulus":"<p>Choose a box,</p>","button_pressed":1,"trial_type":"html-button-response","trial_index":80,"time_elapsed":420901,"internal_node_id":"0.0-19.28-0.28"},{"rate":0.28402773880631654,"trial_type":"html-keyboard-response","trial_index":81,"time_elapsed":420901,"internal_node_id":"0.0-19.28-1.28"},{"rt":null,"stimulus":"<div style=\"background-color:#ff7157\"><h1 style=\"background-color:Tomato\">Bad luck! There was no prize in the box!</h1><h1 style=\"background-color:Tomato\">Remember, you need to keep going until you have 20 prizes!</h1><img id=\"box\" src=\"img/sad/greenopenboxsadthumb.png\"></img></div>","key_press":null,"trial_type":"html-keyboard-response","trial_index":81,"time_elapsed":422404,"internal_node_id":"0.0-19.28-1.28"},{"rt":1508,"stimulus":"<p>Choose a box,</p>","button_pressed":0,"trial_type":"html-button-response","trial_index":82,"time_elapsed":423916,"internal_node_id":"0.0-19.29-0.29"},{"rate":0.5922424211628733,"trial_type":"html-keyboard-response","trial_index":83,"time_elapsed":423916,"internal_node_id":"0.0-19.29-1.29"},{"rt":null,"stimulus":"<div style=\"background-color:#6dce98\"><h1 style=\"background-color:MediumSeaGreen\" >You won a prize! Well done!</h1><div style=\"background-color:#6dce98\"><h1 style=\"background-color:MediumSeaGreen\" >Only 9 left to go!</h1><img id=\"box\" src=\"img/prizes/choc.png\"></img><img id=\"box\" src=\"img/empty/blueopenbox.png\"></img></div>","key_press":null,"trial_type":"html-keyboard-response","trial_index":83,"time_elapsed":425419,"internal_node_id":"0.0-19.29-1.29"},{"rt":1176.9999999999418,"stimulus":"<p>Choose a box,</p>","button_pressed":0,"trial_type":"html-button-response","trial_index":84,"time_elapsed":426599,"internal_node_id":"0.0-19.30-0.30"},{"rate":0.5922424211628733,"trial_type":"html-keyboard-response","trial_index":85,"time_elapsed":426599,"internal_node_id":"0.0-19.30-1.30"},{"rt":null,"stimulus":"<div style=\"background-color:#ff7157\"><h1 style=\"background-color:Tomato\">Bad luck! There was no prize in the box!</h1><h1 style=\"background-color:Tomato\">Remember, you need to keep going until you have 20 prizes!</h1><img id=\"box\" src=\"img/sad/blueopenboxsadthumb.png\"></img></div>","key_press":null,"trial_type":"html-keyboard-response","trial_index":85,"time_elapsed":428102,"internal_node_id":"0.0-19.30-1.30"},{"rt":2648,"stimulus":"<p>Choose a box,</p>","button_pressed":1,"trial_type":"html-button-response","trial_index":86,"time_elapsed":430752,"internal_node_id":"0.0-19.31-0.31"},{"rate":0.28402773880631654,"trial_type":"html-keyboard-response","trial_index":87,"time_elapsed":430752,"internal_node_id":"0.0-19.31-1.31"},{"rt":null,"stimulus":"<div style=\"background-color:#ff7157\"><h1 style=\"background-color:Tomato\">Bad luck! There was no prize in the box!</h1><h1 style=\"background-color:Tomato\">Remember, you need to keep going until you have 20 prizes!</h1><img id=\"box\" src=\"img/sad/greenopenboxsadthumb.png\"></img></div>","key_press":null,"trial_type":"html-keyboard-response","trial_index":87,"time_elapsed":432254,"internal_node_id":"0.0-19.31-1.31"},{"rt":927.0000000000582,"stimulus":"<p>Choose a box,</p>","button_pressed":0,"trial_type":"html-button-response","trial_index":88,"time_elapsed":433185,"internal_node_id":"0.0-19.32-0.32"},{"rate":0.5922424211628733,"trial_type":"html-keyboard-response","trial_index":89,"time_elapsed":433185,"internal_node_id":"0.0-19.32-1.32"},{"rt":null,"stimulus":"<div style=\"background-color:#ff7157\"><h1 style=\"background-color:Tomato\">Bad luck! There was no prize in the box!</h1><h1 style=\"background-color:Tomato\">Remember, you need to keep going until you have 20 prizes!</h1><img id=\"box\" src=\"img/sad/blueopenboxsadthumb.png\"></img></div>","key_press":null,"trial_type":"html-keyboard-response","trial_index":89,"time_elapsed":434687,"internal_node_id":"0.0-19.32-1.32"},{"rt":1141,"stimulus":"<p>Choose a box,</p>","button_pressed":0,"trial_type":"html-button-response","trial_index":90,"time_elapsed":435832,"internal_node_id":"0.0-19.33-0.33"},{"rate":0.5922424211628733,"trial_type":"html-keyboard-response","trial_index":91,"time_elapsed":435832,"internal_node_id":"0.0-19.33-1.33"},{"rt":null,"stimulus":"<div style=\"background-color:#6dce98\"><h1 style=\"background-color:MediumSeaGreen\" >You won a prize! Well done!</h1><div style=\"background-color:#6dce98\"><h1 style=\"background-color:MediumSeaGreen\" >Only 8 left to go!</h1><img id=\"box\" src=\"img/prizes/beachball.png\"></img><img id=\"box\" src=\"img/empty/blueopenbox.png\"></img></div>","key_press":null,"trial_type":"html-keyboard-response","trial_index":91,"time_elapsed":437334,"internal_node_id":"0.0-19.33-1.33"},{"rt":2197,"stimulus":"<p>Choose a box,</p>","button_pressed":2,"trial_type":"html-button-response","trial_index":92,"time_elapsed":439534,"internal_node_id":"0.0-19.34-0.34"},{"rate":0.4443149995509594,"trial_type":"html-keyboard-response","trial_index":93,"time_elapsed":439534,"internal_node_id":"0.0-19.34-1.34"},{"rt":null,"stimulus":"<div style=\"background-color:#ff7157\"><h1 style=\"background-color:Tomato\">Bad luck! There was no prize in the box!</h1><h1 style=\"background-color:Tomato\">Remember, you need to keep going until you have 20 prizes!</h1><img id=\"box\" src=\"img/sad/purpleopenboxsadthumb.png\"></img></div>","key_press":null,"trial_type":"html-keyboard-response","trial_index":93,"time_elapsed":441037,"internal_node_id":"0.0-19.34-1.34"},{"rt":1080.0000000000582,"stimulus":"<p>Choose a box,</p>","button_pressed":0,"trial_type":"html-button-response","trial_index":94,"time_elapsed":442120,"internal_node_id":"0.0-19.35-0.35"},{"rate":0.5922424211628733,"trial_type":"html-keyboard-response","trial_index":95,"time_elapsed":442120,"internal_node_id":"0.0-19.35-1.35"},{"rt":null,"stimulus":"<div style=\"background-color:#ff7157\"><h1 style=\"background-color:Tomato\">Bad luck! There was no prize in the box!</h1><h1 style=\"background-color:Tomato\">Remember, you need to keep going until you have 20 prizes!</h1><img id=\"box\" src=\"img/sad/blueopenboxsadthumb.png\"></img></div>","key_press":null,"trial_type":"html-keyboard-response","trial_index":95,"time_elapsed":443623,"internal_node_id":"0.0-19.35-1.35"},{"rt":976,"stimulus":"<p>Choose a box,</p>","button_pressed":0,"trial_type":"html-button-response","trial_index":96,"time_elapsed":444602,"internal_node_id":"0.0-19.36-0.36"},{"rate":0.5922424211628733,"trial_type":"html-keyboard-response","trial_index":97,"time_elapsed":444602,"internal_node_id":"0.0-19.36-1.36"},{"rt":null,"stimulus":"<div style=\"background-color:#ff7157\"><h1 style=\"background-color:Tomato\">Bad luck! There was no prize in the box!</h1><h1 style=\"background-color:Tomato\">Remember, you need to keep going until you have 20 prizes!</h1><img id=\"box\" src=\"img/sad/blueopenboxsadthumb.png\"></img></div>","key_press":null,"trial_type":"html-keyboard-response","trial_index":97,"time_elapsed":446104,"internal_node_id":"0.0-19.36-1.36"},{"rt":911,"stimulus":"<p>Choose a box,</p>","button_pressed":0,"trial_type":"html-button-response","trial_index":98,"time_elapsed":447017,"internal_node_id":"0.0-19.37-0.37"},{"rate":0.5922424211628733,"trial_type":"html-keyboard-response","trial_index":99,"time_elapsed":447018,"internal_node_id":"0.0-19.37-1.37"},{"rt":null,"stimulus":"<div style=\"background-color:#6dce98\"><h1 style=\"background-color:MediumSeaGreen\" >You won a prize! Well done!</h1><div style=\"background-color:#6dce98\"><h1 style=\"background-color:MediumSeaGreen\" >Only 7 left to go!</h1><img id=\"box\" src=\"img/prizes/flowers.png\"></img><img id=\"box\" src=\"img/empty/blueopenbox.png\"></img></div>","key_press":null,"trial_type":"html-keyboard-response","trial_index":99,"time_elapsed":448521,"internal_node_id":"0.0-19.37-1.37"},{"rt":881,"stimulus":"<p>Choose a box,</p>","button_pressed":1,"trial_type":"html-button-response","trial_index":100,"time_elapsed":449404,"internal_node_id":"0.0-19.38-0.38"},{"rate":0.28402773880631654,"trial_type":"html-keyboard-response","trial_index":101,"time_elapsed":449404,"internal_node_id":"0.0-19.38-1.38"},{"rt":null,"stimulus":"<div style=\"background-color:#6dce98\"><h1 style=\"background-color:MediumSeaGreen\" >You won a prize! Well done!</h1><div style=\"background-color:#6dce98\"><h1 style=\"background-color:MediumSeaGreen\" >Only 6 left to go!</h1><img id=\"box\" src=\"img/prizes/duck.png\"></img><img id=\"box\" src=\"img/empty/greenopenbox.png\"></img></div>","key_press":null,"trial_type":"html-keyboard-response","trial_index":101,"time_elapsed":450906,"internal_node_id":"0.0-19.38-1.38"},{"rt":2860.000000000058,"stimulus":"<p>Choose a box,</p>","button_pressed":3,"trial_type":"html-button-response","trial_index":102,"time_elapsed":453768,"internal_node_id":"0.0-19.39-0.39"},{"rate":0.10655964073442876,"trial_type":"html-keyboard-response","trial_index":103,"time_elapsed":453768,"internal_node_id":"0.0-19.39-1.39"},{"rt":null,"stimulus":"<div style=\"background-color:#ff7157\"><h1 style=\"background-color:Tomato\">Bad luck! There was no prize in the box!</h1><h1 style=\"background-color:Tomato\">Remember, you need to keep going until you have 20 prizes!</h1><img id=\"box\" src=\"img/sad/redopenboxsadthumb.png\"></img></div>","key_press":null,"trial_type":"html-keyboard-response","trial_index":103,"time_elapsed":455271,"internal_node_id":"0.0-19.39-1.39"},{"rt":1063.9999999999418,"stimulus":"<p>Choose a box,</p>","button_pressed":0,"trial_type":"html-button-response","trial_index":104,"time_elapsed":456338,"internal_node_id":"0.0-19.40-0.40"},{"rate":0.5922424211628733,"trial_type":"html-keyboard-response","trial_index":105,"time_elapsed":456338,"internal_node_id":"0.0-19.40-1.40"},{"rt":null,"stimulus":"<div style=\"background-color:#6dce98\"><h1 style=\"background-color:MediumSeaGreen\" >You won a prize! Well done!</h1><div style=\"background-color:#6dce98\"><h1 style=\"background-color:MediumSeaGreen\" >Only 5 left to go!</h1><img id=\"box\" src=\"img/prizes/yoyo.png\"></img><img id=\"box\" src=\"img/empty/blueopenbox.png\"></img></div>","key_press":null,"trial_type":"html-keyboard-response","trial_index":105,"time_elapsed":457841,"internal_node_id":"0.0-19.40-1.40"},{"rt":1493,"stimulus":"<p>Choose a box,</p>","button_pressed":0,"trial_type":"html-button-response","trial_index":106,"time_elapsed":459336,"internal_node_id":"0.0-19.41-0.41"},{"rate":0.5922424211628733,"trial_type":"html-keyboard-response","trial_index":107,"time_elapsed":459336,"internal_node_id":"0.0-19.41-1.41"},{"rt":null,"stimulus":"<div style=\"background-color:#6dce98\"><h1 style=\"background-color:MediumSeaGreen\" >You won a prize! Well done!</h1><div style=\"background-color:#6dce98\"><h1 style=\"background-color:MediumSeaGreen\" >Only 4 left to go!</h1><img id=\"box\" src=\"img/prizes/choc.png\"></img><img id=\"box\" src=\"img/empty/blueopenbox.png\"></img></div>","key_press":null,"trial_type":"html-keyboard-response","trial_index":107,"time_elapsed":460840,"internal_node_id":"0.0-19.41-1.41"},{"rt":878.0000000000582,"stimulus":"<p>Choose a box,</p>","button_pressed":1,"trial_type":"html-button-response","trial_index":108,"time_elapsed":461721,"internal_node_id":"0.0-19.42-0.42"},{"rate":0.28402773880631654,"trial_type":"html-keyboard-response","trial_index":109,"time_elapsed":461721,"internal_node_id":"0.0-19.42-1.42"},{"rt":null,"stimulus":"<div style=\"background-color:#6dce98\"><h1 style=\"background-color:MediumSeaGreen\" >You won a prize! Well done!</h1><div style=\"background-color:#6dce98\"><h1 style=\"background-color:MediumSeaGreen\" >Only 3 left to go!</h1><img id=\"box\" src=\"img/prizes/coins.png\"></img><img id=\"box\" src=\"img/empty/greenopenbox.png\"></img></div>","key_press":null,"trial_type":"html-keyboard-response","trial_index":109,"time_elapsed":463224,"internal_node_id":"0.0-19.42-1.42"},{"rt":1141,"stimulus":"<p>Choose a box,</p>","button_pressed":0,"trial_type":"html-button-response","trial_index":110,"time_elapsed":464368,"internal_node_id":"0.0-19.43-0.43"},{"rate":0.5922424211628733,"trial_type":"html-keyboard-response","trial_index":111,"time_elapsed":464369,"internal_node_id":"0.0-19.43-1.43"},{"rt":null,"stimulus":"<div style=\"background-color:#ff7157\"><h1 style=\"background-color:Tomato\">Bad luck! There was no prize in the box!</h1><h1 style=\"background-color:Tomato\">Remember, you need to keep going until you have 20 prizes!</h1><img id=\"box\" src=\"img/sad/blueopenboxsadthumb.png\"></img></div>","key_press":null,"trial_type":"html-keyboard-response","trial_index":111,"time_elapsed":465871,"internal_node_id":"0.0-19.43-1.43"},{"rt":978.9999999999418,"stimulus":"<p>Choose a box,</p>","button_pressed":0,"trial_type":"html-button-response","trial_index":112,"time_elapsed":466852,"internal_node_id":"0.0-19.44-0.44"},{"rate":0.5922424211628733,"trial_type":"html-keyboard-response","trial_index":113,"time_elapsed":466853,"internal_node_id":"0.0-19.44-1.44"},{"rt":null,"stimulus":"<div style=\"background-color:#6dce98\"><h1 style=\"background-color:MediumSeaGreen\" >You won a prize! Well done!</h1><div style=\"background-color:#6dce98\"><h1 style=\"background-color:MediumSeaGreen\" >Only 2 left to go!</h1><img id=\"box\" src=\"img/prizes/beachball.png\"></img><img id=\"box\" src=\"img/empty/blueopenbox.png\"></img></div>","key_press":null,"trial_type":"html-keyboard-response","trial_index":113,"time_elapsed":468357,"internal_node_id":"0.0-19.44-1.44"},{"rt":978,"stimulus":"<p>Choose a box,</p>","button_pressed":1,"trial_type":"html-button-response","trial_index":114,"time_elapsed":469337,"internal_node_id":"0.0-19.45-0.45"},{"rate":0.28402773880631654,"trial_type":"html-keyboard-response","trial_index":115,"time_elapsed":469337,"internal_node_id":"0.0-19.45-1.45"},{"rt":null,"stimulus":"<div style=\"background-color:#ff7157\"><h1 style=\"background-color:Tomato\">Bad luck! There was no prize in the box!</h1><h1 style=\"background-color:Tomato\">Remember, you need to keep going until you have 20 prizes!</h1><img id=\"box\" src=\"img/sad/greenopenboxsadthumb.png\"></img></div>","key_press":null,"trial_type":"html-keyboard-response","trial_index":115,"time_elapsed":470839,"internal_node_id":"0.0-19.45-1.45"},{"rt":875,"stimulus":"<p>Choose a box,</p>","button_pressed":0,"trial_type":"html-button-response","trial_index":116,"time_elapsed":471718,"internal_node_id":"0.0-19.46-0.46"},{"rate":0.5922424211628733,"trial_type":"html-keyboard-response","trial_index":117,"time_elapsed":471718,"internal_node_id":"0.0-19.46-1.46"},{"rt":null,"stimulus":"<div style=\"background-color:#ff7157\"><h1 style=\"background-color:Tomato\">Bad luck! There was no prize in the box!</h1><h1 style=\"background-color:Tomato\">Remember, you need to keep going until you have 20 prizes!</h1><img id=\"box\" src=\"img/sad/blueopenboxsadthumb.png\"></img></div>","key_press":null,"trial_type":"html-keyboard-response","trial_index":117,"time_elapsed":473221,"internal_node_id":"0.0-19.46-1.46"},{"rt":983,"stimulus":"<p>Choose a box,</p>","button_pressed":0,"trial_type":"html-button-response","trial_index":118,"time_elapsed":474205,"internal_node_id":"0.0-19.47-0.47"},{"rate":0.5922424211628733,"trial_type":"html-keyboard-response","trial_index":119,"time_elapsed":474206,"internal_node_id":"0.0-19.47-1.47"},{"rt":null,"stimulus":"<div style=\"background-color:#6dce98\"><h1 style=\"background-color:MediumSeaGreen\" >You won a prize! Well done!</h1><div style=\"background-color:#6dce98\"><h1 style=\"background-color:MediumSeaGreen\" >Only 1 left to go!</h1><img id=\"box\" src=\"img/prizes/duck.png\"></img><img id=\"box\" src=\"img/empty/blueopenbox.png\"></img></div>","key_press":null,"trial_type":"html-keyboard-response","trial_index":119,"time_elapsed":475710,"internal_node_id":"0.0-19.47-1.47"},{"rt":889,"stimulus":"<p>Choose a box,</p>","button_pressed":1,"trial_type":"html-button-response","trial_index":120,"time_elapsed":476601,"internal_node_id":"0.0-19.48-0.48"},{"rate":0.28402773880631654,"trial_type":"html-keyboard-response","trial_index":121,"time_elapsed":476601,"internal_node_id":"0.0-19.48-1.48"},{"rt":null,"stimulus":"<div style=\"background-color:#ff7157\"><h1 style=\"background-color:Tomato\">Bad luck! There was no prize in the box!</h1><h1 style=\"background-color:Tomato\">Remember, you need to keep going until you have 20 prizes!</h1><img id=\"box\" src=\"img/sad/greenopenboxsadthumb.png\"></img></div>","key_press":null,"trial_type":"html-keyboard-response","trial_index":121,"time_elapsed":478104,"internal_node_id":"0.0-19.48-1.48"},{"rt":864.0000000000582,"stimulus":"<p>Choose a box,</p>","button_pressed":0,"trial_type":"html-button-response","trial_index":122,"time_elapsed":478970,"internal_node_id":"0.0-19.49-0.49"},{"rate":0.5922424211628733,"trial_type":"html-keyboard-response","trial_index":123,"time_elapsed":478970,"internal_node_id":"0.0-19.49-1.49"},{"rt":null,"stimulus":"<div style=\"background-color:#6dce98\"><h1 style=\"background-color:MediumSeaGreen\" >You won a prize! Well done!</h1><div style=\"background-color:#6dce98\"><h1 style=\"background-color:MediumSeaGreen\" >Only 0 left to go!</h1><img id=\"box\" src=\"img/prizes/beachball.png\"></img><img id=\"box\" src=\"img/empty/blueopenbox.png\"></img></div>","key_press":null,"trial_type":"html-keyboard-response","trial_index":123,"time_elapsed":480474,"internal_node_id":"0.0-19.49-1.49"},{"rt":379472,"responses":"{\"Q0\":\"It was a bit repetitive and I didn’t feel invested\",\"Q1\":\"I stuck to the colour I liked the most, occasionally changing and choosing one of the other ones\"}","trial_type":"survey-text","trial_index":124,"time_elapsed":859974,"internal_node_id":"0.0-20.0"}]