[{"view_history":"[{\"page_index\":0,\"viewing_time\":3056.7600000067614},{\"page_index\":1,\"viewing_time\":5710.204999952111},{\"page_index\":2,\"viewing_time\":3431.2450000434183},{\"page_index\":3,\"viewing_time\":1433.8199999765493},{\"page_index\":4,\"viewing_time\":1081.5200000070035},{\"page_index\":5,\"viewing_time\":1763.6099999654107}]","rt":16479.049999965355,"trial_type":"instructions","trial_index":0,"time_elapsed":16494,"internal_node_id":"0.0-0.0"},{"rt":9525.515000044834,"responses":"{\"Q0\":\"Yes\",\"Q1\":\"Yes\",\"Q2\":\"Yes\"}","question_order":"[0,1,2]","trial_type":"survey-multi-choice","trial_index":1,"time_elapsed":26026,"internal_node_id":"0.0-1.0-0.0"},{"rt":15275.604999973439,"responses":"{\"Q0\":\"Yes\",\"Q1\":\"Yes\",\"Q2\":\"Yes\"}","question_order":"[0,1,2]","trial_type":"survey-multi-choice","trial_index":2,"time_elapsed":41315,"internal_node_id":"0.0-2.0-0.0"},{"rt":3009.3249999918044,"responses":"{\"Q0\":\"5db8950a551391000c3c5199\"}","trial_type":"survey-text","trial_index":3,"time_elapsed":44346,"internal_node_id":"0.0-3.0"},{"rt":4617.209999996703,"responses":"{\"Q0\":\"Female\",\"Q1\":\"25-34\"}","question_order":"[0,1]","trial_type":"survey-multi-choice","trial_index":4,"time_elapsed":48967,"internal_node_id":"0.0-4.0"},{"rt":5424.245000001974,"responses":"{\"Q0\":\"\"}","trial_type":"survey-text","trial_index":5,"time_elapsed":54412,"internal_node_id":"0.0-5.0"},{"view_history":"[{\"page_index\":0,\"viewing_time\":11590.525000006892}]","rt":11591.175000008661,"trial_type":"instructions","trial_index":6,"time_elapsed":66004,"internal_node_id":"0.0-6.0"},{"rt":15038.560000015423,"responses":"{\"Interested\":2,\"Distressed\":1,\"Excited\":0,\"Upset\":1}","question_order":"[0,1,2,3]","trial_type":"survey-likert","trial_index":7,"time_elapsed":81048,"internal_node_id":"0.0-7.0"},{"rt":11776.279999990948,"responses":"{\"Strong\":1,\"Guilty\":4,\"Scared\":3,\"Hostile\":0}","question_order":"[0,1,2,3]","trial_type":"survey-likert","trial_index":8,"time_elapsed":92837,"internal_node_id":"0.0-8.0"},{"rt":16416.889999993145,"responses":"{\"Enthusiastic\":3,\"Proud\":0,\"Irritable\":4,\"Alert\":3}","question_order":"[0,1,2,3]","trial_type":"survey-likert","trial_index":9,"time_elapsed":109266,"internal_node_id":"0.0-9.0"},{"rt":22812.029999971855,"responses":"{\"Ashamed\":0,\"Inspired\":0,\"Nervous\":3,\"Determined\":0}","question_order":"[0,1,2,3]","trial_type":"survey-likert","trial_index":10,"time_elapsed":132091,"internal_node_id":"0.0-10.0"},{"rt":17461.180000042077,"responses":"{\"Attentive\":3,\"Jittery\":1,\"Active\":0,\"Afraid\":3}","question_order":"[0,1,2,3]","trial_type":"survey-likert","trial_index":11,"time_elapsed":149566,"internal_node_id":"0.0-11.0"},{"rt":41311.155000003055,"responses":"{\"Q0\":3,\"Q1\":3,\"Q2\":0,\"Q3\":0}","question_order":"[0,1,2,3]","trial_type":"survey-likert","trial_index":12,"time_elapsed":190891,"internal_node_id":"0.0-12.0"},{"rt":32061.430000001565,"responses":"{\"Q0\":1,\"Q1\":0,\"Q2\":3,\"Q3\":0}","question_order":"[0,1,2,3]","trial_type":"survey-likert","trial_index":13,"time_elapsed":222970,"internal_node_id":"0.0-13.0"},{"rt":25027.71999995457,"responses":"{\"Q0\":0,\"Q1\":1,\"Q2\":1,\"Q3\":1}","question_order":"[0,1,2,3]","trial_type":"survey-likert","trial_index":14,"time_elapsed":248011,"internal_node_id":"0.0-14.0"},{"rt":19520.38000000175,"responses":"{\"Q0\":1,\"Q1\":1,\"Q2\":3}","question_order":"[0,1,2]","trial_type":"survey-likert","trial_index":15,"time_elapsed":267546,"internal_node_id":"0.0-15.0"},{"view_history":"[{\"page_index\":0,\"viewing_time\":3415.2200000244193},{\"page_index\":1,\"viewing_time\":9492.914999951608},{\"page_index\":2,\"viewing_time\":7394.830000004731}]","rt":20303.550000011455,"trial_type":"instructions","trial_index":16,"time_elapsed":287867,"internal_node_id":"0.0-16.0"},{"rt":1474.7750000096858,"stimulus":"<p>Choose a box,</p>","button_pressed":2,"trial_type":"html-button-response","trial_index":17,"time_elapsed":289348,"internal_node_id":"0.0-17.0-0.0"},{"rate":0.72424321924089,"trial_type":"html-keyboard-response","trial_index":18,"time_elapsed":289348,"internal_node_id":"0.0-17.0-1.0"},{"rt":null,"stimulus":"<div style=\"background-color:#6dce98\"><h1 style=\"background-color:MediumSeaGreen\" >You won a prize! Well done!</h1><div style=\"background-color:#6dce98\"><h1 style=\"background-color:MediumSeaGreen\" >Only 19 left to go!</h1><img id=\"box\" src=\"img/prizes/lolipop.png\"></img><img id=\"box\" src=\"img/empty/purpleopenbox.png\"></img></div>","key_press":null,"trial_type":"html-keyboard-response","trial_index":18,"time_elapsed":290853,"internal_node_id":"0.0-17.0-1.0"},{"rt":1464.0549999894574,"stimulus":"<p>Choose a box,</p>","button_pressed":2,"trial_type":"html-button-response","trial_index":19,"time_elapsed":292322,"internal_node_id":"0.0-17.0-0.1"},{"rate":0.72424321924089,"trial_type":"html-keyboard-response","trial_index":20,"time_elapsed":292322,"internal_node_id":"0.0-17.0-1.1"},{"rt":null,"stimulus":"<div style=\"background-color:#6dce98\"><h1 style=\"background-color:MediumSeaGreen\" >You won a prize! Well done!</h1><div style=\"background-color:#6dce98\"><h1 style=\"background-color:MediumSeaGreen\" >Only 18 left to go!</h1><img id=\"box\" src=\"img/prizes/flowers.png\"></img><img id=\"box\" src=\"img/empty/purpleopenbox.png\"></img></div>","key_press":null,"trial_type":"html-keyboard-response","trial_index":20,"time_elapsed":293831,"internal_node_id":"0.0-17.0-1.1"},{"rt":831.6699999850243,"stimulus":"<p>Choose a box,</p>","button_pressed":2,"trial_type":"html-button-response","trial_index":21,"time_elapsed":294666,"internal_node_id":"0.0-17.0-0.2"},{"rate":0.72424321924089,"trial_type":"html-keyboard-response","trial_index":22,"time_elapsed":294666,"internal_node_id":"0.0-17.0-1.2"},{"rt":null,"stimulus":"<div style=\"background-color:#6dce98\"><h1 style=\"background-color:MediumSeaGreen\" >You won a prize! Well done!</h1><div style=\"background-color:#6dce98\"><h1 style=\"background-color:MediumSeaGreen\" >Only 17 left to go!</h1><img id=\"box\" src=\"img/prizes/duck.png\"></img><img id=\"box\" src=\"img/empty/purpleopenbox.png\"></img></div>","key_press":null,"trial_type":"html-keyboard-response","trial_index":22,"time_elapsed":296170,"internal_node_id":"0.0-17.0-1.2"},{"view_history":"[{\"page_index\":0,\"viewing_time\":1753.2599999685772}]","rt":1753.8550000172108,"trial_type":"instructions","trial_index":23,"time_elapsed":297925,"internal_node_id":"0.0-18.0"},{"rt":1377.6350000407547,"stimulus":"<p>Choose a box,</p>","button_pressed":2,"trial_type":"html-button-response","trial_index":24,"time_elapsed":299308,"internal_node_id":"0.0-19.0-0.0"},{"rate":0.6880282049206676,"trial_type":"html-keyboard-response","trial_index":25,"time_elapsed":299308,"internal_node_id":"0.0-19.0-1.0"},{"rt":null,"stimulus":"<div style=\"background-color:#6dce98\"><h1 style=\"background-color:MediumSeaGreen\" >You won a prize! Well done!</h1><div style=\"background-color:#6dce98\"><h1 style=\"background-color:MediumSeaGreen\" >Only 19 left to go!</h1><img id=\"box\" src=\"img/prizes/duck.png\"></img><img id=\"box\" src=\"img/empty/purpleopenbox.png\"></img></div>","key_press":null,"trial_type":"html-keyboard-response","trial_index":25,"time_elapsed":300826,"internal_node_id":"0.0-19.0-1.0"},{"rt":693.0150000262074,"stimulus":"<p>Choose a box,</p>","button_pressed":2,"trial_type":"html-button-response","trial_index":26,"time_elapsed":301523,"internal_node_id":"0.0-19.1-0.1"},{"rate":0.6880282049206676,"trial_type":"html-keyboard-response","trial_index":27,"time_elapsed":301523,"internal_node_id":"0.0-19.1-1.1"},{"rt":null,"stimulus":"<div style=\"background-color:#6dce98\"><h1 style=\"background-color:MediumSeaGreen\" >You won a prize! Well done!</h1><div style=\"background-color:#6dce98\"><h1 style=\"background-color:MediumSeaGreen\" >Only 18 left to go!</h1><img id=\"box\" src=\"img/prizes/flowers.png\"></img><img id=\"box\" src=\"img/empty/purpleopenbox.png\"></img></div>","key_press":null,"trial_type":"html-keyboard-response","trial_index":27,"time_elapsed":303032,"internal_node_id":"0.0-19.1-1.1"},{"rt":714.7699999623001,"stimulus":"<p>Choose a box,</p>","button_pressed":2,"trial_type":"html-button-response","trial_index":28,"time_elapsed":303750,"internal_node_id":"0.0-19.2-0.2"},{"rate":0.6880282049206676,"trial_type":"html-keyboard-response","trial_index":29,"time_elapsed":303750,"internal_node_id":"0.0-19.2-1.2"},{"rt":null,"stimulus":"<div style=\"background-color:#6dce98\"><h1 style=\"background-color:MediumSeaGreen\" >You won a prize! Well done!</h1><div style=\"background-color:#6dce98\"><h1 style=\"background-color:MediumSeaGreen\" >Only 17 left to go!</h1><img id=\"box\" src=\"img/prizes/lolipop.png\"></img><img id=\"box\" src=\"img/empty/purpleopenbox.png\"></img></div>","key_press":null,"trial_type":"html-keyboard-response","trial_index":29,"time_elapsed":305276,"internal_node_id":"0.0-19.2-1.2"},{"rt":644.6499999728985,"stimulus":"<p>Choose a box,</p>","button_pressed":2,"trial_type":"html-button-response","trial_index":30,"time_elapsed":305929,"internal_node_id":"0.0-19.3-0.3"},{"rate":0.6880282049206676,"trial_type":"html-keyboard-response","trial_index":31,"time_elapsed":305929,"internal_node_id":"0.0-19.3-1.3"},{"rt":null,"stimulus":"<div style=\"background-color:#6dce98\"><h1 style=\"background-color:MediumSeaGreen\" >You won a prize! Well done!</h1><div style=\"background-color:#6dce98\"><h1 style=\"background-color:MediumSeaGreen\" >Only 16 left to go!</h1><img id=\"box\" src=\"img/prizes/coins.png\"></img><img id=\"box\" src=\"img/empty/purpleopenbox.png\"></img></div>","key_press":null,"trial_type":"html-keyboard-response","trial_index":31,"time_elapsed":307439,"internal_node_id":"0.0-19.3-1.3"},{"rt":754.1199999977835,"stimulus":"<p>Choose a box,</p>","button_pressed":2,"trial_type":"html-button-response","trial_index":32,"time_elapsed":308196,"internal_node_id":"0.0-19.4-0.4"},{"rate":0.6880282049206676,"trial_type":"html-keyboard-response","trial_index":33,"time_elapsed":308196,"internal_node_id":"0.0-19.4-1.4"},{"rt":null,"stimulus":"<div style=\"background-color:#6dce98\"><h1 style=\"background-color:MediumSeaGreen\" >You won a prize! Well done!</h1><div style=\"background-color:#6dce98\"><h1 style=\"background-color:MediumSeaGreen\" >Only 15 left to go!</h1><img id=\"box\" src=\"img/prizes/beachball.png\"></img><img id=\"box\" src=\"img/empty/purpleopenbox.png\"></img></div>","key_press":null,"trial_type":"html-keyboard-response","trial_index":33,"time_elapsed":309708,"internal_node_id":"0.0-19.4-1.4"},{"rt":936.1599999829195,"stimulus":"<p>Choose a box,</p>","button_pressed":2,"trial_type":"html-button-response","trial_index":34,"time_elapsed":310648,"internal_node_id":"0.0-19.5-0.5"},{"rate":0.6880282049206676,"trial_type":"html-keyboard-response","trial_index":35,"time_elapsed":310648,"internal_node_id":"0.0-19.5-1.5"},{"rt":null,"stimulus":"<div style=\"background-color:#ff7157\"><h1 style=\"background-color:Tomato\">Bad luck! There was no prize in the box!</h1><h1 style=\"background-color:Tomato\">Remember, you need to keep going until you have 20 prizes!</h1><img id=\"box\" src=\"img/sad/purpleopenboxsadthumb.png\"></img></div>","key_press":null,"trial_type":"html-keyboard-response","trial_index":35,"time_elapsed":312154,"internal_node_id":"0.0-19.5-1.5"},{"rt":931.685000017751,"stimulus":"<p>Choose a box,</p>","button_pressed":2,"trial_type":"html-button-response","trial_index":36,"time_elapsed":313089,"internal_node_id":"0.0-19.6-0.6"},{"rate":0.6880282049206676,"trial_type":"html-keyboard-response","trial_index":37,"time_elapsed":313089,"internal_node_id":"0.0-19.6-1.6"},{"rt":null,"stimulus":"<div style=\"background-color:#6dce98\"><h1 style=\"background-color:MediumSeaGreen\" >You won a prize! Well done!</h1><div style=\"background-color:#6dce98\"><h1 style=\"background-color:MediumSeaGreen\" >Only 14 left to go!</h1><img id=\"box\" src=\"img/prizes/flowers.png\"></img><img id=\"box\" src=\"img/empty/purpleopenbox.png\"></img></div>","key_press":null,"trial_type":"html-keyboard-response","trial_index":37,"time_elapsed":314593,"internal_node_id":"0.0-19.6-1.6"},{"rt":875.6350000039674,"stimulus":"<p>Choose a box,</p>","button_pressed":2,"trial_type":"html-button-response","trial_index":38,"time_elapsed":315472,"internal_node_id":"0.0-19.7-0.7"},{"rate":0.6880282049206676,"trial_type":"html-keyboard-response","trial_index":39,"time_elapsed":315473,"internal_node_id":"0.0-19.7-1.7"},{"rt":null,"stimulus":"<div style=\"background-color:#6dce98\"><h1 style=\"background-color:MediumSeaGreen\" >You won a prize! Well done!</h1><div style=\"background-color:#6dce98\"><h1 style=\"background-color:MediumSeaGreen\" >Only 13 left to go!</h1><img id=\"box\" src=\"img/prizes/beachball.png\"></img><img id=\"box\" src=\"img/empty/purpleopenbox.png\"></img></div>","key_press":null,"trial_type":"html-keyboard-response","trial_index":39,"time_elapsed":316981,"internal_node_id":"0.0-19.7-1.7"},{"rt":813.1500000017695,"stimulus":"<p>Choose a box,</p>","button_pressed":2,"trial_type":"html-button-response","trial_index":40,"time_elapsed":317797,"internal_node_id":"0.0-19.8-0.8"},{"rate":0.6880282049206676,"trial_type":"html-keyboard-response","trial_index":41,"time_elapsed":317798,"internal_node_id":"0.0-19.8-1.8"},{"rt":null,"stimulus":"<div style=\"background-color:#6dce98\"><h1 style=\"background-color:MediumSeaGreen\" >You won a prize! Well done!</h1><div style=\"background-color:#6dce98\"><h1 style=\"background-color:MediumSeaGreen\" >Only 12 left to go!</h1><img id=\"box\" src=\"img/prizes/bear.png\"></img><img id=\"box\" src=\"img/empty/purpleopenbox.png\"></img></div>","key_press":null,"trial_type":"html-keyboard-response","trial_index":41,"time_elapsed":319302,"internal_node_id":"0.0-19.8-1.8"},{"rt":211.91500005079433,"stimulus":"<p>Choose a box,</p>","button_pressed":2,"trial_type":"html-button-response","trial_index":42,"time_elapsed":319517,"internal_node_id":"0.0-19.9-0.9"},{"rate":0.6880282049206676,"trial_type":"html-keyboard-response","trial_index":43,"time_elapsed":319517,"internal_node_id":"0.0-19.9-1.9"},{"rt":null,"stimulus":"<div style=\"background-color:#ff7157\"><h1 style=\"background-color:Tomato\">Bad luck! There was no prize in the box!</h1><h1 style=\"background-color:Tomato\">Remember, you need to keep going until you have 20 prizes!</h1><img id=\"box\" src=\"img/sad/purpleopenboxsadthumb.png\"></img></div>","key_press":null,"trial_type":"html-keyboard-response","trial_index":43,"time_elapsed":321024,"internal_node_id":"0.0-19.9-1.9"},{"rt":493.5700000496581,"stimulus":"<p>Choose a box,</p>","button_pressed":2,"trial_type":"html-button-response","trial_index":44,"time_elapsed":321521,"internal_node_id":"0.0-19.10-0.10"},{"rate":0.6880282049206676,"trial_type":"html-keyboard-response","trial_index":45,"time_elapsed":321521,"internal_node_id":"0.0-19.10-1.10"},{"rt":null,"stimulus":"<div style=\"background-color:#6dce98\"><h1 style=\"background-color:MediumSeaGreen\" >You won a prize! Well done!</h1><div style=\"background-color:#6dce98\"><h1 style=\"background-color:MediumSeaGreen\" >Only 11 left to go!</h1><img id=\"box\" src=\"img/prizes/duck.png\"></img><img id=\"box\" src=\"img/empty/purpleopenbox.png\"></img></div>","key_press":null,"trial_type":"html-keyboard-response","trial_index":45,"time_elapsed":323027,"internal_node_id":"0.0-19.10-1.10"},{"rt":891.5449999622069,"stimulus":"<p>Choose a box,</p>","button_pressed":2,"trial_type":"html-button-response","trial_index":46,"time_elapsed":323924,"internal_node_id":"0.0-19.11-0.11"},{"rate":0.6880282049206676,"trial_type":"html-keyboard-response","trial_index":47,"time_elapsed":323924,"internal_node_id":"0.0-19.11-1.11"},{"rt":null,"stimulus":"<div style=\"background-color:#ff7157\"><h1 style=\"background-color:Tomato\">Bad luck! There was no prize in the box!</h1><h1 style=\"background-color:Tomato\">Remember, you need to keep going until you have 20 prizes!</h1><img id=\"box\" src=\"img/sad/purpleopenboxsadthumb.png\"></img></div>","key_press":null,"trial_type":"html-keyboard-response","trial_index":47,"time_elapsed":325430,"internal_node_id":"0.0-19.11-1.11"},{"rt":783.7650000001304,"stimulus":"<p>Choose a box,</p>","button_pressed":2,"trial_type":"html-button-response","trial_index":48,"time_elapsed":326219,"internal_node_id":"0.0-19.12-0.12"},{"rate":0.6880282049206676,"trial_type":"html-keyboard-response","trial_index":49,"time_elapsed":326220,"internal_node_id":"0.0-19.12-1.12"},{"rt":null,"stimulus":"<div style=\"background-color:#6dce98\"><h1 style=\"background-color:MediumSeaGreen\" >You won a prize! Well done!</h1><div style=\"background-color:#6dce98\"><h1 style=\"background-color:MediumSeaGreen\" >Only 10 left to go!</h1><img id=\"box\" src=\"img/prizes/coins.png\"></img><img id=\"box\" src=\"img/empty/purpleopenbox.png\"></img></div>","key_press":null,"trial_type":"html-keyboard-response","trial_index":49,"time_elapsed":327732,"internal_node_id":"0.0-19.12-1.12"},{"rt":915.3700000024401,"stimulus":"<p>Choose a box,</p>","button_pressed":2,"trial_type":"html-button-response","trial_index":50,"time_elapsed":328652,"internal_node_id":"0.0-19.13-0.13"},{"rate":0.6880282049206676,"trial_type":"html-keyboard-response","trial_index":51,"time_elapsed":328652,"internal_node_id":"0.0-19.13-1.13"},{"rt":null,"stimulus":"<div style=\"background-color:#6dce98\"><h1 style=\"background-color:MediumSeaGreen\" >You won a prize! Well done!</h1><div style=\"background-color:#6dce98\"><h1 style=\"background-color:MediumSeaGreen\" >Only 9 left to go!</h1><img id=\"box\" src=\"img/prizes/coins.png\"></img><img id=\"box\" src=\"img/empty/purpleopenbox.png\"></img></div>","key_press":null,"trial_type":"html-keyboard-response","trial_index":51,"time_elapsed":330156,"internal_node_id":"0.0-19.13-1.13"},{"rt":710.4500000132248,"stimulus":"<p>Choose a box,</p>","button_pressed":2,"trial_type":"html-button-response","trial_index":52,"time_elapsed":330870,"internal_node_id":"0.0-19.14-0.14"},{"rate":0.6880282049206676,"trial_type":"html-keyboard-response","trial_index":53,"time_elapsed":330870,"internal_node_id":"0.0-19.14-1.14"},{"rt":null,"stimulus":"<div style=\"background-color:#6dce98\"><h1 style=\"background-color:MediumSeaGreen\" >You won a prize! Well done!</h1><div style=\"background-color:#6dce98\"><h1 style=\"background-color:MediumSeaGreen\" >Only 8 left to go!</h1><img id=\"box\" src=\"img/prizes/coins.png\"></img><img id=\"box\" src=\"img/empty/purpleopenbox.png\"></img></div>","key_press":null,"trial_type":"html-keyboard-response","trial_index":53,"time_elapsed":332377,"internal_node_id":"0.0-19.14-1.14"},{"rt":696.4450000086799,"stimulus":"<p>Choose a box,</p>","button_pressed":2,"trial_type":"html-button-response","trial_index":54,"time_elapsed":333078,"internal_node_id":"0.0-19.15-0.15"},{"rate":0.6880282049206676,"trial_type":"html-keyboard-response","trial_index":55,"time_elapsed":333079,"internal_node_id":"0.0-19.15-1.15"},{"rt":null,"stimulus":"<div style=\"background-color:#ff7157\"><h1 style=\"background-color:Tomato\">Bad luck! There was no prize in the box!</h1><h1 style=\"background-color:Tomato\">Remember, you need to keep going until you have 20 prizes!</h1><img id=\"box\" src=\"img/sad/purpleopenboxsadthumb.png\"></img></div>","key_press":null,"trial_type":"html-keyboard-response","trial_index":55,"time_elapsed":334591,"internal_node_id":"0.0-19.15-1.15"},{"rt":867.2699999879114,"stimulus":"<p>Choose a box,</p>","button_pressed":2,"trial_type":"html-button-response","trial_index":56,"time_elapsed":335462,"internal_node_id":"0.0-19.16-0.16"},{"rate":0.6880282049206676,"trial_type":"html-keyboard-response","trial_index":57,"time_elapsed":335462,"internal_node_id":"0.0-19.16-1.16"},{"rt":null,"stimulus":"<div style=\"background-color:#ff7157\"><h1 style=\"background-color:Tomato\">Bad luck! There was no prize in the box!</h1><h1 style=\"background-color:Tomato\">Remember, you need to keep going until you have 20 prizes!</h1><img id=\"box\" src=\"img/sad/purpleopenboxsadthumb.png\"></img></div>","key_press":null,"trial_type":"html-keyboard-response","trial_index":57,"time_elapsed":336973,"internal_node_id":"0.0-19.16-1.16"},{"rt":828.5049999831244,"stimulus":"<p>Choose a box,</p>","button_pressed":2,"trial_type":"html-button-response","trial_index":58,"time_elapsed":337806,"internal_node_id":"0.0-19.17-0.17"},{"rate":0.6880282049206676,"trial_type":"html-keyboard-response","trial_index":59,"time_elapsed":337806,"internal_node_id":"0.0-19.17-1.17"},{"rt":null,"stimulus":"<div style=\"background-color:#6dce98\"><h1 style=\"background-color:MediumSeaGreen\" >You won a prize! Well done!</h1><div style=\"background-color:#6dce98\"><h1 style=\"background-color:MediumSeaGreen\" >Only 7 left to go!</h1><img id=\"box\" src=\"img/prizes/beachball.png\"></img><img id=\"box\" src=\"img/empty/purpleopenbox.png\"></img></div>","key_press":null,"trial_type":"html-keyboard-response","trial_index":59,"time_elapsed":339319,"internal_node_id":"0.0-19.17-1.17"},{"rt":914.9900000193156,"stimulus":"<p>Choose a box,</p>","button_pressed":2,"trial_type":"html-button-response","trial_index":60,"time_elapsed":340237,"internal_node_id":"0.0-19.18-0.18"},{"rate":0.6880282049206676,"trial_type":"html-keyboard-response","trial_index":61,"time_elapsed":340237,"internal_node_id":"0.0-19.18-1.18"},{"rt":null,"stimulus":"<div style=\"background-color:#6dce98\"><h1 style=\"background-color:MediumSeaGreen\" >You won a prize! Well done!</h1><div style=\"background-color:#6dce98\"><h1 style=\"background-color:MediumSeaGreen\" >Only 6 left to go!</h1><img id=\"box\" src=\"img/prizes/ring.png\"></img><img id=\"box\" src=\"img/empty/purpleopenbox.png\"></img></div>","key_press":null,"trial_type":"html-keyboard-response","trial_index":61,"time_elapsed":341748,"internal_node_id":"0.0-19.18-1.18"},{"rt":702.0449999836273,"stimulus":"<p>Choose a box,</p>","button_pressed":2,"trial_type":"html-button-response","trial_index":62,"time_elapsed":342456,"internal_node_id":"0.0-19.19-0.19"},{"rate":0.6880282049206676,"trial_type":"html-keyboard-response","trial_index":63,"time_elapsed":342456,"internal_node_id":"0.0-19.19-1.19"},{"rt":null,"stimulus":"<div style=\"background-color:#ff7157\"><h1 style=\"background-color:Tomato\">Bad luck! There was no prize in the box!</h1><h1 style=\"background-color:Tomato\">Remember, you need to keep going until you have 20 prizes!</h1><img id=\"box\" src=\"img/sad/purpleopenboxsadthumb.png\"></img></div>","key_press":null,"trial_type":"html-keyboard-response","trial_index":63,"time_elapsed":343972,"internal_node_id":"0.0-19.19-1.19"},{"rt":836.1449999501929,"stimulus":"<p>Choose a box,</p>","button_pressed":2,"trial_type":"html-button-response","trial_index":64,"time_elapsed":344811,"internal_node_id":"0.0-19.20-0.20"},{"rate":0.6880282049206676,"trial_type":"html-keyboard-response","trial_index":65,"time_elapsed":344811,"internal_node_id":"0.0-19.20-1.20"},{"rt":null,"stimulus":"<div style=\"background-color:#6dce98\"><h1 style=\"background-color:MediumSeaGreen\" >You won a prize! Well done!</h1><div style=\"background-color:#6dce98\"><h1 style=\"background-color:MediumSeaGreen\" >Only 5 left to go!</h1><img id=\"box\" src=\"img/prizes/lolipop.png\"></img><img id=\"box\" src=\"img/empty/purpleopenbox.png\"></img></div>","key_press":null,"trial_type":"html-keyboard-response","trial_index":65,"time_elapsed":346325,"internal_node_id":"0.0-19.20-1.20"},{"rt":640.4999999795109,"stimulus":"<p>Choose a box,</p>","button_pressed":2,"trial_type":"html-button-response","trial_index":66,"time_elapsed":346969,"internal_node_id":"0.0-19.21-0.21"},{"rate":0.6880282049206676,"trial_type":"html-keyboard-response","trial_index":67,"time_elapsed":346970,"internal_node_id":"0.0-19.21-1.21"},{"rt":null,"stimulus":"<div style=\"background-color:#ff7157\"><h1 style=\"background-color:Tomato\">Bad luck! There was no prize in the box!</h1><h1 style=\"background-color:Tomato\">Remember, you need to keep going until you have 20 prizes!</h1><img id=\"box\" src=\"img/sad/purpleopenboxsadthumb.png\"></img></div>","key_press":null,"trial_type":"html-keyboard-response","trial_index":67,"time_elapsed":348490,"internal_node_id":"0.0-19.21-1.21"},{"rt":663.4849999682046,"stimulus":"<p>Choose a box,</p>","button_pressed":2,"trial_type":"html-button-response","trial_index":68,"time_elapsed":349158,"internal_node_id":"0.0-19.22-0.22"},{"rate":0.6880282049206676,"trial_type":"html-keyboard-response","trial_index":69,"time_elapsed":349159,"internal_node_id":"0.0-19.22-1.22"},{"rt":null,"stimulus":"<div style=\"background-color:#ff7157\"><h1 style=\"background-color:Tomato\">Bad luck! There was no prize in the box!</h1><h1 style=\"background-color:Tomato\">Remember, you need to keep going until you have 20 prizes!</h1><img id=\"box\" src=\"img/sad/purpleopenboxsadthumb.png\"></img></div>","key_press":null,"trial_type":"html-keyboard-response","trial_index":69,"time_elapsed":350670,"internal_node_id":"0.0-19.22-1.22"},{"rt":613.6650000116788,"stimulus":"<p>Choose a box,</p>","button_pressed":2,"trial_type":"html-button-response","trial_index":70,"time_elapsed":351287,"internal_node_id":"0.0-19.23-0.23"},{"rate":0.6880282049206676,"trial_type":"html-keyboard-response","trial_index":71,"time_elapsed":351290,"internal_node_id":"0.0-19.23-1.23"},{"rt":null,"stimulus":"<div style=\"background-color:#6dce98\"><h1 style=\"background-color:MediumSeaGreen\" >You won a prize! Well done!</h1><div style=\"background-color:#6dce98\"><h1 style=\"background-color:MediumSeaGreen\" >Only 4 left to go!</h1><img id=\"box\" src=\"img/prizes/beachball.png\"></img><img id=\"box\" src=\"img/empty/purpleopenbox.png\"></img></div>","key_press":null,"trial_type":"html-keyboard-response","trial_index":71,"time_elapsed":352801,"internal_node_id":"0.0-19.23-1.23"},{"rt":661.0799999907613,"stimulus":"<p>Choose a box,</p>","button_pressed":2,"trial_type":"html-button-response","trial_index":72,"time_elapsed":353468,"internal_node_id":"0.0-19.24-0.24"},{"rate":0.6880282049206676,"trial_type":"html-keyboard-response","trial_index":73,"time_elapsed":353468,"internal_node_id":"0.0-19.24-1.24"},{"rt":null,"stimulus":"<div style=\"background-color:#6dce98\"><h1 style=\"background-color:MediumSeaGreen\" >You won a prize! Well done!</h1><div style=\"background-color:#6dce98\"><h1 style=\"background-color:MediumSeaGreen\" >Only 3 left to go!</h1><img id=\"box\" src=\"img/prizes/choc.png\"></img><img id=\"box\" src=\"img/empty/purpleopenbox.png\"></img></div>","key_press":null,"trial_type":"html-keyboard-response","trial_index":73,"time_elapsed":354977,"internal_node_id":"0.0-19.24-1.24"},{"rt":179.3700000271201,"stimulus":"<p>Choose a box,</p>","button_pressed":2,"trial_type":"html-button-response","trial_index":74,"time_elapsed":355161,"internal_node_id":"0.0-19.25-0.25"},{"rate":0.6880282049206676,"trial_type":"html-keyboard-response","trial_index":75,"time_elapsed":355161,"internal_node_id":"0.0-19.25-1.25"},{"rt":null,"stimulus":"<div style=\"background-color:#6dce98\"><h1 style=\"background-color:MediumSeaGreen\" >You won a prize! Well done!</h1><div style=\"background-color:#6dce98\"><h1 style=\"background-color:MediumSeaGreen\" >Only 2 left to go!</h1><img id=\"box\" src=\"img/prizes/beachball.png\"></img><img id=\"box\" src=\"img/empty/purpleopenbox.png\"></img></div>","key_press":null,"trial_type":"html-keyboard-response","trial_index":75,"time_elapsed":356671,"internal_node_id":"0.0-19.25-1.25"},{"rt":602.855000004638,"stimulus":"<p>Choose a box,</p>","button_pressed":2,"trial_type":"html-button-response","trial_index":76,"time_elapsed":357280,"internal_node_id":"0.0-19.26-0.26"},{"rate":0.6880282049206676,"trial_type":"html-keyboard-response","trial_index":77,"time_elapsed":357280,"internal_node_id":"0.0-19.26-1.26"},{"rt":null,"stimulus":"<div style=\"background-color:#6dce98\"><h1 style=\"background-color:MediumSeaGreen\" >You won a prize! Well done!</h1><div style=\"background-color:#6dce98\"><h1 style=\"background-color:MediumSeaGreen\" >Only 1 left to go!</h1><img id=\"box\" src=\"img/prizes/lolipop.png\"></img><img id=\"box\" src=\"img/empty/purpleopenbox.png\"></img></div>","key_press":null,"trial_type":"html-keyboard-response","trial_index":77,"time_elapsed":358788,"internal_node_id":"0.0-19.26-1.26"},{"rt":736.6699999547563,"stimulus":"<p>Choose a box,</p>","button_pressed":2,"trial_type":"html-button-response","trial_index":78,"time_elapsed":359529,"internal_node_id":"0.0-19.27-0.27"},{"rate":0.6880282049206676,"trial_type":"html-keyboard-response","trial_index":79,"time_elapsed":359529,"internal_node_id":"0.0-19.27-1.27"},{"rt":null,"stimulus":"<div style=\"background-color:#ff7157\"><h1 style=\"background-color:Tomato\">Bad luck! There was no prize in the box!</h1><h1 style=\"background-color:Tomato\">Remember, you need to keep going until you have 20 prizes!</h1><img id=\"box\" src=\"img/sad/purpleopenboxsadthumb.png\"></img></div>","key_press":null,"trial_type":"html-keyboard-response","trial_index":79,"time_elapsed":361039,"internal_node_id":"0.0-19.27-1.27"},{"rt":1384.2050000093877,"stimulus":"<p>Choose a box,</p>","button_pressed":2,"trial_type":"html-button-response","trial_index":80,"time_elapsed":362426,"internal_node_id":"0.0-19.28-0.28"},{"rate":0.6880282049206676,"trial_type":"html-keyboard-response","trial_index":81,"time_elapsed":362426,"internal_node_id":"0.0-19.28-1.28"},{"rt":null,"stimulus":"<div style=\"background-color:#6dce98\"><h1 style=\"background-color:MediumSeaGreen\" >You won a prize! Well done!</h1><div style=\"background-color:#6dce98\"><h1 style=\"background-color:MediumSeaGreen\" >Only 0 left to go!</h1><img id=\"box\" src=\"img/prizes/lolipop.png\"></img><img id=\"box\" src=\"img/empty/purpleopenbox.png\"></img></div>","key_press":null,"trial_type":"html-keyboard-response","trial_index":81,"time_elapsed":363938,"internal_node_id":"0.0-19.28-1.28"},{"rt":49039.83500000322,"responses":"{\"Q0\":\"It was simple and enjoyable\",\"Q1\":\"i always picked the colour i liked\"}","trial_type":"survey-text","trial_index":82,"time_elapsed":413232,"internal_node_id":"0.0-20.0"}]