[{"view_history":"[{\"page_index\":0,\"viewing_time\":17769.60499980487},{\"page_index\":1,\"viewing_time\":4887.735000113025},{\"page_index\":2,\"viewing_time\":9209.939999971539},{\"page_index\":3,\"viewing_time\":9840.97500005737},{\"page_index\":4,\"viewing_time\":7863.924999954179},{\"page_index\":5,\"viewing_time\":8850.065000122413}]","rt":58424.60499983281,"trial_type":"instructions","trial_index":0,"time_elapsed":58452,"internal_node_id":"0.0-0.0"},{"rt":6707.119999919087,"responses":"{\"Q0\":\"Yes\",\"Q1\":\"Yes\",\"Q2\":\"Yes\"}","question_order":"[0,1,2]","trial_type":"survey-multi-choice","trial_index":1,"time_elapsed":65237,"internal_node_id":"0.0-1.0-0.0"},{"rt":8850.000000093132,"responses":"{\"Q0\":\"Yes\",\"Q1\":\"Yes\",\"Q2\":\"Yes\"}","question_order":"[0,1,2]","trial_type":"survey-multi-choice","trial_index":2,"time_elapsed":74105,"internal_node_id":"0.0-2.0-0.0"},{"rt":7654.590000165626,"responses":"{\"Q0\":\"5eac25f0cced6122f7522ac1\"}","trial_type":"survey-text","trial_index":3,"time_elapsed":81783,"internal_node_id":"0.0-3.0"},{"rt":6400.875000050291,"responses":"{\"Q0\":\"Female\",\"Q1\":\"25-34\"}","question_order":"[0,1]","trial_type":"survey-multi-choice","trial_index":4,"time_elapsed":88192,"internal_node_id":"0.0-4.0"},{"rt":4338.014999870211,"responses":"{\"Q0\":\"N/A\"}","trial_type":"survey-text","trial_index":5,"time_elapsed":92576,"internal_node_id":"0.0-5.0"},{"view_history":"[{\"page_index\":0,\"viewing_time\":3325.715000042692}]","rt":3326.3600000645965,"trial_type":"instructions","trial_index":6,"time_elapsed":95905,"internal_node_id":"0.0-6.0"},{"rt":17460.710000013933,"responses":"{\"Interested\":2,\"Distressed\":0,\"Excited\":1,\"Upset\":3}","question_order":"[0,1,2,3]","trial_type":"survey-likert","trial_index":7,"time_elapsed":113416,"internal_node_id":"0.0-7.0"},{"rt":15038.704999955371,"responses":"{\"Strong\":0,\"Guilty\":3,\"Scared\":3,\"Hostile\":1}","question_order":"[0,1,2,3]","trial_type":"survey-likert","trial_index":8,"time_elapsed":128473,"internal_node_id":"0.0-8.0"},{"rt":11634.56999999471,"responses":"{\"Enthusiastic\":1,\"Proud\":1,\"Irritable\":2,\"Alert\":1}","question_order":"[0,1,2,3]","trial_type":"survey-likert","trial_index":9,"time_elapsed":140126,"internal_node_id":"0.0-9.0"},{"rt":14077.069999882951,"responses":"{\"Ashamed\":3,\"Inspired\":1,\"Nervous\":3,\"Determined\":2}","question_order":"[0,1,2,3]","trial_type":"survey-likert","trial_index":10,"time_elapsed":154227,"internal_node_id":"0.0-10.0"},{"rt":14649.979999987409,"responses":"{\"Attentive\":1,\"Jittery\":1,\"Active\":0,\"Afraid\":4}","question_order":"[0,1,2,3]","trial_type":"survey-likert","trial_index":11,"time_elapsed":168895,"internal_node_id":"0.0-11.0"},{"rt":13990.804999833927,"responses":"{\"Q0\":1,\"Q1\":2,\"Q2\":2,\"Q3\":2}","question_order":"[0,1,2,3]","trial_type":"survey-likert","trial_index":12,"time_elapsed":182902,"internal_node_id":"0.0-12.0"},{"rt":17191.219999920577,"responses":"{\"Q0\":3,\"Q1\":3,\"Q2\":1,\"Q3\":0}","question_order":"[0,1,2,3]","trial_type":"survey-likert","trial_index":13,"time_elapsed":200111,"internal_node_id":"0.0-13.0"},{"rt":9288.72499987483,"responses":"{\"Q0\":3,\"Q1\":3,\"Q2\":3,\"Q3\":2}","question_order":"[0,1,2,3]","trial_type":"survey-likert","trial_index":14,"time_elapsed":209418,"internal_node_id":"0.0-14.0"},{"rt":12236.504999920726,"responses":"{\"Q0\":0,\"Q1\":2,\"Q2\":3}","question_order":"[0,1,2]","trial_type":"survey-likert","trial_index":15,"time_elapsed":221672,"internal_node_id":"0.0-15.0"},{"view_history":"[{\"page_index\":0,\"viewing_time\":2453.995000105351},{\"page_index\":1,\"viewing_time\":8781.474999850616},{\"page_index\":2,\"viewing_time\":8555.835000006482}]","rt":19791.85999999754,"trial_type":"instructions","trial_index":16,"time_elapsed":241503,"internal_node_id":"0.0-16.0"},{"rt":2615.9399999305606,"stimulus":"<p>Choose a box,</p>","button_pressed":1,"trial_type":"html-button-response","trial_index":17,"time_elapsed":244127,"internal_node_id":"0.0-17.0-0.0"},{"rate":0.9598035523433454,"trial_type":"html-keyboard-response","trial_index":18,"time_elapsed":244128,"internal_node_id":"0.0-17.0-1.0"},{"rt":null,"stimulus":"<div style=\"background-color:#6dce98\"><h1 style=\"background-color:MediumSeaGreen\" >You won a prize! Well done!</h1><div style=\"background-color:#6dce98\"><h1 style=\"background-color:MediumSeaGreen\" >Only 19 left to go!</h1><img id=\"box\" src=\"img/prizes/ring.png\"></img><img id=\"box\" src=\"img/empty/greenopenbox.png\"></img></div>","key_press":null,"trial_type":"html-keyboard-response","trial_index":18,"time_elapsed":245644,"internal_node_id":"0.0-17.0-1.0"},{"rt":2757.6199998147786,"stimulus":"<p>Choose a box,</p>","button_pressed":2,"trial_type":"html-button-response","trial_index":19,"time_elapsed":248407,"internal_node_id":"0.0-17.0-0.1"},{"rate":0.20059536928475452,"trial_type":"html-keyboard-response","trial_index":20,"time_elapsed":248407,"internal_node_id":"0.0-17.0-1.1"},{"rt":null,"stimulus":"<div style=\"background-color:#ff7157\"><h1 style=\"background-color:Tomato\">Bad luck! There was no prize in the box!</h1><h1 style=\"background-color:Tomato\">Remember, you need to keep going until you have 20 prizes!</h1><img id=\"box\" src=\"img/sad/purpleopenboxsadthumb.png\"></img></div>","key_press":null,"trial_type":"html-keyboard-response","trial_index":20,"time_elapsed":249921,"internal_node_id":"0.0-17.0-1.1"},{"rt":1783.9999999850988,"stimulus":"<p>Choose a box,</p>","button_pressed":3,"trial_type":"html-button-response","trial_index":21,"time_elapsed":251709,"internal_node_id":"0.0-17.0-0.2"},{"rate":0.8367336645851787,"trial_type":"html-keyboard-response","trial_index":22,"time_elapsed":251710,"internal_node_id":"0.0-17.0-1.2"},{"rt":null,"stimulus":"<div style=\"background-color:#6dce98\"><h1 style=\"background-color:MediumSeaGreen\" >You won a prize! Well done!</h1><div style=\"background-color:#6dce98\"><h1 style=\"background-color:MediumSeaGreen\" >Only 18 left to go!</h1><img id=\"box\" src=\"img/prizes/duck.png\"></img><img id=\"box\" src=\"img/empty/redopenbox.png\"></img></div>","key_press":null,"trial_type":"html-keyboard-response","trial_index":22,"time_elapsed":253214,"internal_node_id":"0.0-17.0-1.2"},{"view_history":"[{\"page_index\":0,\"viewing_time\":7169.975000200793}]","rt":7170.600000070408,"trial_type":"instructions","trial_index":23,"time_elapsed":260388,"internal_node_id":"0.0-18.0"},{"rt":1367.240000050515,"stimulus":"<p>Choose a box,</p>","button_pressed":1,"trial_type":"html-button-response","trial_index":24,"time_elapsed":261762,"internal_node_id":"0.0-19.0-0.0"},{"rate":0.7816921050540893,"trial_type":"html-keyboard-response","trial_index":25,"time_elapsed":261762,"internal_node_id":"0.0-19.0-1.0"},{"rt":null,"stimulus":"<div style=\"background-color:#6dce98\"><h1 style=\"background-color:MediumSeaGreen\" >You won a prize! Well done!</h1><div style=\"background-color:#6dce98\"><h1 style=\"background-color:MediumSeaGreen\" >Only 19 left to go!</h1><img id=\"box\" src=\"img/prizes/yoyo.png\"></img><img id=\"box\" src=\"img/empty/greenopenbox.png\"></img></div>","key_press":null,"trial_type":"html-keyboard-response","trial_index":25,"time_elapsed":263267,"internal_node_id":"0.0-19.0-1.0"},{"rt":1034.0699998196214,"stimulus":"<p>Choose a box,</p>","button_pressed":3,"trial_type":"html-button-response","trial_index":26,"time_elapsed":264305,"internal_node_id":"0.0-19.1-0.1"},{"rate":0.3926002602638536,"trial_type":"html-keyboard-response","trial_index":27,"time_elapsed":264305,"internal_node_id":"0.0-19.1-1.1"},{"rt":null,"stimulus":"<div style=\"background-color:#ff7157\"><h1 style=\"background-color:Tomato\">Bad luck! There was no prize in the box!</h1><h1 style=\"background-color:Tomato\">Remember, you need to keep going until you have 20 prizes!</h1><img id=\"box\" src=\"img/sad/redopenboxsadthumb.png\"></img></div>","key_press":null,"trial_type":"html-keyboard-response","trial_index":27,"time_elapsed":265817,"internal_node_id":"0.0-19.1-1.1"},{"rt":921.5500000864267,"stimulus":"<p>Choose a box,</p>","button_pressed":2,"trial_type":"html-button-response","trial_index":28,"time_elapsed":266743,"internal_node_id":"0.0-19.2-0.2"},{"rate":0.9852973736038085,"trial_type":"html-keyboard-response","trial_index":29,"time_elapsed":266744,"internal_node_id":"0.0-19.2-1.2"},{"rt":null,"stimulus":"<div style=\"background-color:#6dce98\"><h1 style=\"background-color:MediumSeaGreen\" >You won a prize! Well done!</h1><div style=\"background-color:#6dce98\"><h1 style=\"background-color:MediumSeaGreen\" >Only 18 left to go!</h1><img id=\"box\" src=\"img/prizes/beachball.png\"></img><img id=\"box\" src=\"img/empty/purpleopenbox.png\"></img></div>","key_press":null,"trial_type":"html-keyboard-response","trial_index":29,"time_elapsed":268260,"internal_node_id":"0.0-19.2-1.2"},{"rt":1088.579999981448,"stimulus":"<p>Choose a box,</p>","button_pressed":1,"trial_type":"html-button-response","trial_index":30,"time_elapsed":269354,"internal_node_id":"0.0-19.3-0.3"},{"rate":0.7816921050540893,"trial_type":"html-keyboard-response","trial_index":31,"time_elapsed":269354,"internal_node_id":"0.0-19.3-1.3"},{"rt":null,"stimulus":"<div style=\"background-color:#ff7157\"><h1 style=\"background-color:Tomato\">Bad luck! There was no prize in the box!</h1><h1 style=\"background-color:Tomato\">Remember, you need to keep going until you have 20 prizes!</h1><img id=\"box\" src=\"img/sad/greenopenboxsadthumb.png\"></img></div>","key_press":null,"trial_type":"html-keyboard-response","trial_index":31,"time_elapsed":270862,"internal_node_id":"0.0-19.3-1.3"},{"rt":502.38000019453466,"stimulus":"<p>Choose a box,</p>","button_pressed":0,"trial_type":"html-button-response","trial_index":32,"time_elapsed":271369,"internal_node_id":"0.0-19.4-0.4"},{"rate":0.18291507750828445,"trial_type":"html-keyboard-response","trial_index":33,"time_elapsed":271370,"internal_node_id":"0.0-19.4-1.4"},{"rt":null,"stimulus":"<div style=\"background-color:#ff7157\"><h1 style=\"background-color:Tomato\">Bad luck! There was no prize in the box!</h1><h1 style=\"background-color:Tomato\">Remember, you need to keep going until you have 20 prizes!</h1><img id=\"box\" src=\"img/sad/blueopenboxsadthumb.png\"></img></div>","key_press":null,"trial_type":"html-keyboard-response","trial_index":33,"time_elapsed":272875,"internal_node_id":"0.0-19.4-1.4"},{"rt":692.3950000200421,"stimulus":"<p>Choose a box,</p>","button_pressed":3,"trial_type":"html-button-response","trial_index":34,"time_elapsed":273571,"internal_node_id":"0.0-19.5-0.5"},{"rate":0.3926002602638536,"trial_type":"html-keyboard-response","trial_index":35,"time_elapsed":273571,"internal_node_id":"0.0-19.5-1.5"},{"rt":null,"stimulus":"<div style=\"background-color:#ff7157\"><h1 style=\"background-color:Tomato\">Bad luck! There was no prize in the box!</h1><h1 style=\"background-color:Tomato\">Remember, you need to keep going until you have 20 prizes!</h1><img id=\"box\" src=\"img/sad/redopenboxsadthumb.png\"></img></div>","key_press":null,"trial_type":"html-keyboard-response","trial_index":35,"time_elapsed":275077,"internal_node_id":"0.0-19.5-1.5"},{"rt":417.64999995939434,"stimulus":"<p>Choose a box,</p>","button_pressed":2,"trial_type":"html-button-response","trial_index":36,"time_elapsed":275498,"internal_node_id":"0.0-19.6-0.6"},{"rate":0.9852973736038085,"trial_type":"html-keyboard-response","trial_index":37,"time_elapsed":275499,"internal_node_id":"0.0-19.6-1.6"},{"rt":null,"stimulus":"<div style=\"background-color:#6dce98\"><h1 style=\"background-color:MediumSeaGreen\" >You won a prize! Well done!</h1><div style=\"background-color:#6dce98\"><h1 style=\"background-color:MediumSeaGreen\" >Only 17 left to go!</h1><img id=\"box\" src=\"img/prizes/beachball.png\"></img><img id=\"box\" src=\"img/empty/purpleopenbox.png\"></img></div>","key_press":null,"trial_type":"html-keyboard-response","trial_index":37,"time_elapsed":277008,"internal_node_id":"0.0-19.6-1.6"},{"rt":706.3250001519918,"stimulus":"<p>Choose a box,</p>","button_pressed":2,"trial_type":"html-button-response","trial_index":38,"time_elapsed":277720,"internal_node_id":"0.0-19.7-0.7"},{"rate":0.9852973736038085,"trial_type":"html-keyboard-response","trial_index":39,"time_elapsed":277720,"internal_node_id":"0.0-19.7-1.7"},{"rt":null,"stimulus":"<div style=\"background-color:#6dce98\"><h1 style=\"background-color:MediumSeaGreen\" >You won a prize! Well done!</h1><div style=\"background-color:#6dce98\"><h1 style=\"background-color:MediumSeaGreen\" >Only 16 left to go!</h1><img id=\"box\" src=\"img/prizes/duck.png\"></img><img id=\"box\" src=\"img/empty/purpleopenbox.png\"></img></div>","key_press":null,"trial_type":"html-keyboard-response","trial_index":39,"time_elapsed":279239,"internal_node_id":"0.0-19.7-1.7"},{"rt":557.6150000561029,"stimulus":"<p>Choose a box,</p>","button_pressed":2,"trial_type":"html-button-response","trial_index":40,"time_elapsed":279802,"internal_node_id":"0.0-19.8-0.8"},{"rate":0.9852973736038085,"trial_type":"html-keyboard-response","trial_index":41,"time_elapsed":279802,"internal_node_id":"0.0-19.8-1.8"},{"rt":null,"stimulus":"<div style=\"background-color:#6dce98\"><h1 style=\"background-color:MediumSeaGreen\" >You won a prize! Well done!</h1><div style=\"background-color:#6dce98\"><h1 style=\"background-color:MediumSeaGreen\" >Only 15 left to go!</h1><img id=\"box\" src=\"img/prizes/lolipop.png\"></img><img id=\"box\" src=\"img/empty/purpleopenbox.png\"></img></div>","key_press":null,"trial_type":"html-keyboard-response","trial_index":41,"time_elapsed":281313,"internal_node_id":"0.0-19.8-1.8"},{"rt":375.89000002481043,"stimulus":"<p>Choose a box,</p>","button_pressed":2,"trial_type":"html-button-response","trial_index":42,"time_elapsed":281692,"internal_node_id":"0.0-19.9-0.9"},{"rate":0.9852973736038085,"trial_type":"html-keyboard-response","trial_index":43,"time_elapsed":281693,"internal_node_id":"0.0-19.9-1.9"},{"rt":null,"stimulus":"<div style=\"background-color:#6dce98\"><h1 style=\"background-color:MediumSeaGreen\" >You won a prize! Well done!</h1><div style=\"background-color:#6dce98\"><h1 style=\"background-color:MediumSeaGreen\" >Only 14 left to go!</h1><img id=\"box\" src=\"img/prizes/coins.png\"></img><img id=\"box\" src=\"img/empty/purpleopenbox.png\"></img></div>","key_press":null,"trial_type":"html-keyboard-response","trial_index":43,"time_elapsed":283209,"internal_node_id":"0.0-19.9-1.9"},{"rt":360.58499990031123,"stimulus":"<p>Choose a box,</p>","button_pressed":2,"trial_type":"html-button-response","trial_index":44,"time_elapsed":283574,"internal_node_id":"0.0-19.10-0.10"},{"rate":0.9852973736038085,"trial_type":"html-keyboard-response","trial_index":45,"time_elapsed":283575,"internal_node_id":"0.0-19.10-1.10"},{"rt":null,"stimulus":"<div style=\"background-color:#6dce98\"><h1 style=\"background-color:MediumSeaGreen\" >You won a prize! Well done!</h1><div style=\"background-color:#6dce98\"><h1 style=\"background-color:MediumSeaGreen\" >Only 13 left to go!</h1><img id=\"box\" src=\"img/prizes/coins.png\"></img><img id=\"box\" src=\"img/empty/purpleopenbox.png\"></img></div>","key_press":null,"trial_type":"html-keyboard-response","trial_index":45,"time_elapsed":285080,"internal_node_id":"0.0-19.10-1.10"},{"rt":429.7499998938292,"stimulus":"<p>Choose a box,</p>","button_pressed":2,"trial_type":"html-button-response","trial_index":46,"time_elapsed":285513,"internal_node_id":"0.0-19.11-0.11"},{"rate":0.9852973736038085,"trial_type":"html-keyboard-response","trial_index":47,"time_elapsed":285514,"internal_node_id":"0.0-19.11-1.11"},{"rt":null,"stimulus":"<div style=\"background-color:#6dce98\"><h1 style=\"background-color:MediumSeaGreen\" >You won a prize! Well done!</h1><div style=\"background-color:#6dce98\"><h1 style=\"background-color:MediumSeaGreen\" >Only 12 left to go!</h1><img id=\"box\" src=\"img/prizes/beachball.png\"></img><img id=\"box\" src=\"img/empty/purpleopenbox.png\"></img></div>","key_press":null,"trial_type":"html-keyboard-response","trial_index":47,"time_elapsed":287018,"internal_node_id":"0.0-19.11-1.11"},{"rt":592.1550001949072,"stimulus":"<p>Choose a box,</p>","button_pressed":2,"trial_type":"html-button-response","trial_index":48,"time_elapsed":287616,"internal_node_id":"0.0-19.12-0.12"},{"rate":0.9852973736038085,"trial_type":"html-keyboard-response","trial_index":49,"time_elapsed":287617,"internal_node_id":"0.0-19.12-1.12"},{"rt":null,"stimulus":"<div style=\"background-color:#6dce98\"><h1 style=\"background-color:MediumSeaGreen\" >You won a prize! Well done!</h1><div style=\"background-color:#6dce98\"><h1 style=\"background-color:MediumSeaGreen\" >Only 11 left to go!</h1><img id=\"box\" src=\"img/prizes/choc.png\"></img><img id=\"box\" src=\"img/empty/purpleopenbox.png\"></img></div>","key_press":null,"trial_type":"html-keyboard-response","trial_index":49,"time_elapsed":289137,"internal_node_id":"0.0-19.12-1.12"},{"rt":713.3150000590831,"stimulus":"<p>Choose a box,</p>","button_pressed":2,"trial_type":"html-button-response","trial_index":50,"time_elapsed":289858,"internal_node_id":"0.0-19.13-0.13"},{"rate":0.9852973736038085,"trial_type":"html-keyboard-response","trial_index":51,"time_elapsed":289858,"internal_node_id":"0.0-19.13-1.13"},{"rt":null,"stimulus":"<div style=\"background-color:#6dce98\"><h1 style=\"background-color:MediumSeaGreen\" >You won a prize! Well done!</h1><div style=\"background-color:#6dce98\"><h1 style=\"background-color:MediumSeaGreen\" >Only 10 left to go!</h1><img id=\"box\" src=\"img/prizes/beachball.png\"></img><img id=\"box\" src=\"img/empty/purpleopenbox.png\"></img></div>","key_press":null,"trial_type":"html-keyboard-response","trial_index":51,"time_elapsed":291364,"internal_node_id":"0.0-19.13-1.13"},{"rt":517.0449998695403,"stimulus":"<p>Choose a box,</p>","button_pressed":1,"trial_type":"html-button-response","trial_index":52,"time_elapsed":291885,"internal_node_id":"0.0-19.14-0.14"},{"rate":0.7816921050540893,"trial_type":"html-keyboard-response","trial_index":53,"time_elapsed":291886,"internal_node_id":"0.0-19.14-1.14"},{"rt":null,"stimulus":"<div style=\"background-color:#6dce98\"><h1 style=\"background-color:MediumSeaGreen\" >You won a prize! Well done!</h1><div style=\"background-color:#6dce98\"><h1 style=\"background-color:MediumSeaGreen\" >Only 9 left to go!</h1><img id=\"box\" src=\"img/prizes/beachball.png\"></img><img id=\"box\" src=\"img/empty/greenopenbox.png\"></img></div>","key_press":null,"trial_type":"html-keyboard-response","trial_index":53,"time_elapsed":293403,"internal_node_id":"0.0-19.14-1.14"},{"rt":392.80999987386167,"stimulus":"<p>Choose a box,</p>","button_pressed":1,"trial_type":"html-button-response","trial_index":54,"time_elapsed":293802,"internal_node_id":"0.0-19.15-0.15"},{"rate":0.7816921050540893,"trial_type":"html-keyboard-response","trial_index":55,"time_elapsed":293802,"internal_node_id":"0.0-19.15-1.15"},{"rt":null,"stimulus":"<div style=\"background-color:#6dce98\"><h1 style=\"background-color:MediumSeaGreen\" >You won a prize! Well done!</h1><div style=\"background-color:#6dce98\"><h1 style=\"background-color:MediumSeaGreen\" >Only 8 left to go!</h1><img id=\"box\" src=\"img/prizes/duck.png\"></img><img id=\"box\" src=\"img/empty/greenopenbox.png\"></img></div>","key_press":null,"trial_type":"html-keyboard-response","trial_index":55,"time_elapsed":295318,"internal_node_id":"0.0-19.15-1.15"},{"rt":493.43499983660877,"stimulus":"<p>Choose a box,</p>","button_pressed":1,"trial_type":"html-button-response","trial_index":56,"time_elapsed":295816,"internal_node_id":"0.0-19.16-0.16"},{"rate":0.7816921050540893,"trial_type":"html-keyboard-response","trial_index":57,"time_elapsed":295816,"internal_node_id":"0.0-19.16-1.16"},{"rt":null,"stimulus":"<div style=\"background-color:#ff7157\"><h1 style=\"background-color:Tomato\">Bad luck! There was no prize in the box!</h1><h1 style=\"background-color:Tomato\">Remember, you need to keep going until you have 20 prizes!</h1><img id=\"box\" src=\"img/sad/greenopenboxsadthumb.png\"></img></div>","key_press":null,"trial_type":"html-keyboard-response","trial_index":57,"time_elapsed":297325,"internal_node_id":"0.0-19.16-1.16"},{"rt":552.2249999921769,"stimulus":"<p>Choose a box,</p>","button_pressed":2,"trial_type":"html-button-response","trial_index":58,"time_elapsed":297881,"internal_node_id":"0.0-19.17-0.17"},{"rate":0.9852973736038085,"trial_type":"html-keyboard-response","trial_index":59,"time_elapsed":297881,"internal_node_id":"0.0-19.17-1.17"},{"rt":null,"stimulus":"<div style=\"background-color:#6dce98\"><h1 style=\"background-color:MediumSeaGreen\" >You won a prize! Well done!</h1><div style=\"background-color:#6dce98\"><h1 style=\"background-color:MediumSeaGreen\" >Only 7 left to go!</h1><img id=\"box\" src=\"img/prizes/beachball.png\"></img><img id=\"box\" src=\"img/empty/purpleopenbox.png\"></img></div>","key_press":null,"trial_type":"html-keyboard-response","trial_index":59,"time_elapsed":299399,"internal_node_id":"0.0-19.17-1.17"},{"rt":430.0200000870973,"stimulus":"<p>Choose a box,</p>","button_pressed":2,"trial_type":"html-button-response","trial_index":60,"time_elapsed":299834,"internal_node_id":"0.0-19.18-0.18"},{"rate":0.9852973736038085,"trial_type":"html-keyboard-response","trial_index":61,"time_elapsed":299834,"internal_node_id":"0.0-19.18-1.18"},{"rt":null,"stimulus":"<div style=\"background-color:#6dce98\"><h1 style=\"background-color:MediumSeaGreen\" >You won a prize! Well done!</h1><div style=\"background-color:#6dce98\"><h1 style=\"background-color:MediumSeaGreen\" >Only 6 left to go!</h1><img id=\"box\" src=\"img/prizes/coins.png\"></img><img id=\"box\" src=\"img/empty/purpleopenbox.png\"></img></div>","key_press":null,"trial_type":"html-keyboard-response","trial_index":61,"time_elapsed":301353,"internal_node_id":"0.0-19.18-1.18"},{"rt":445.6899999640882,"stimulus":"<p>Choose a box,</p>","button_pressed":2,"trial_type":"html-button-response","trial_index":62,"time_elapsed":301809,"internal_node_id":"0.0-19.19-0.19"},{"rate":0.9852973736038085,"trial_type":"html-keyboard-response","trial_index":63,"time_elapsed":301809,"internal_node_id":"0.0-19.19-1.19"},{"rt":null,"stimulus":"<div style=\"background-color:#6dce98\"><h1 style=\"background-color:MediumSeaGreen\" >You won a prize! Well done!</h1><div style=\"background-color:#6dce98\"><h1 style=\"background-color:MediumSeaGreen\" >Only 5 left to go!</h1><img id=\"box\" src=\"img/prizes/choc.png\"></img><img id=\"box\" src=\"img/empty/purpleopenbox.png\"></img></div>","key_press":null,"trial_type":"html-keyboard-response","trial_index":63,"time_elapsed":303325,"internal_node_id":"0.0-19.19-1.19"},{"rt":401.37000009417534,"stimulus":"<p>Choose a box,</p>","button_pressed":2,"trial_type":"html-button-response","trial_index":64,"time_elapsed":303730,"internal_node_id":"0.0-19.20-0.20"},{"rate":0.9852973736038085,"trial_type":"html-keyboard-response","trial_index":65,"time_elapsed":303730,"internal_node_id":"0.0-19.20-1.20"},{"rt":null,"stimulus":"<div style=\"background-color:#6dce98\"><h1 style=\"background-color:MediumSeaGreen\" >You won a prize! Well done!</h1><div style=\"background-color:#6dce98\"><h1 style=\"background-color:MediumSeaGreen\" >Only 4 left to go!</h1><img id=\"box\" src=\"img/prizes/lolipop.png\"></img><img id=\"box\" src=\"img/empty/purpleopenbox.png\"></img></div>","key_press":null,"trial_type":"html-keyboard-response","trial_index":65,"time_elapsed":305244,"internal_node_id":"0.0-19.20-1.20"},{"rt":345.6300001125783,"stimulus":"<p>Choose a box,</p>","button_pressed":2,"trial_type":"html-button-response","trial_index":66,"time_elapsed":305594,"internal_node_id":"0.0-19.21-0.21"},{"rate":0.9852973736038085,"trial_type":"html-keyboard-response","trial_index":67,"time_elapsed":305594,"internal_node_id":"0.0-19.21-1.21"},{"rt":null,"stimulus":"<div style=\"background-color:#6dce98\"><h1 style=\"background-color:MediumSeaGreen\" >You won a prize! Well done!</h1><div style=\"background-color:#6dce98\"><h1 style=\"background-color:MediumSeaGreen\" >Only 3 left to go!</h1><img id=\"box\" src=\"img/prizes/beachball.png\"></img><img id=\"box\" src=\"img/empty/purpleopenbox.png\"></img></div>","key_press":null,"trial_type":"html-keyboard-response","trial_index":67,"time_elapsed":307099,"internal_node_id":"0.0-19.21-1.21"},{"rt":199.75499995052814,"stimulus":"<p>Choose a box,</p>","button_pressed":2,"trial_type":"html-button-response","trial_index":68,"time_elapsed":307303,"internal_node_id":"0.0-19.22-0.22"},{"rate":0.9852973736038085,"trial_type":"html-keyboard-response","trial_index":69,"time_elapsed":307303,"internal_node_id":"0.0-19.22-1.22"},{"rt":null,"stimulus":"<div style=\"background-color:#6dce98\"><h1 style=\"background-color:MediumSeaGreen\" >You won a prize! Well done!</h1><div style=\"background-color:#6dce98\"><h1 style=\"background-color:MediumSeaGreen\" >Only 2 left to go!</h1><img id=\"box\" src=\"img/prizes/flowers.png\"></img><img id=\"box\" src=\"img/empty/purpleopenbox.png\"></img></div>","key_press":null,"trial_type":"html-keyboard-response","trial_index":69,"time_elapsed":308812,"internal_node_id":"0.0-19.22-1.22"},{"rt":358.96000009961426,"stimulus":"<p>Choose a box,</p>","button_pressed":2,"trial_type":"html-button-response","trial_index":70,"time_elapsed":309175,"internal_node_id":"0.0-19.23-0.23"},{"rate":0.9852973736038085,"trial_type":"html-keyboard-response","trial_index":71,"time_elapsed":309175,"internal_node_id":"0.0-19.23-1.23"},{"rt":null,"stimulus":"<div style=\"background-color:#6dce98\"><h1 style=\"background-color:MediumSeaGreen\" >You won a prize! Well done!</h1><div style=\"background-color:#6dce98\"><h1 style=\"background-color:MediumSeaGreen\" >Only 1 left to go!</h1><img id=\"box\" src=\"img/prizes/coins.png\"></img><img id=\"box\" src=\"img/empty/purpleopenbox.png\"></img></div>","key_press":null,"trial_type":"html-keyboard-response","trial_index":71,"time_elapsed":310684,"internal_node_id":"0.0-19.23-1.23"},{"rt":429.3799998704344,"stimulus":"<p>Choose a box,</p>","button_pressed":2,"trial_type":"html-button-response","trial_index":72,"time_elapsed":311116,"internal_node_id":"0.0-19.24-0.24"},{"rate":0.9852973736038085,"trial_type":"html-keyboard-response","trial_index":73,"time_elapsed":311117,"internal_node_id":"0.0-19.24-1.24"},{"rt":null,"stimulus":"<div style=\"background-color:#6dce98\"><h1 style=\"background-color:MediumSeaGreen\" >You won a prize! Well done!</h1><div style=\"background-color:#6dce98\"><h1 style=\"background-color:MediumSeaGreen\" >Only 0 left to go!</h1><img id=\"box\" src=\"img/prizes/duck.png\"></img><img id=\"box\" src=\"img/empty/purpleopenbox.png\"></img></div>","key_press":null,"trial_type":"html-keyboard-response","trial_index":73,"time_elapsed":312621,"internal_node_id":"0.0-19.24-1.24"},{"rt":50194.76500013843,"responses":"{\"Q0\":\"Confusing into how it helps someone understand decision making.\",\"Q1\":\"I chose the same two boxes once I saw that the other two had no prizes.\"}","trial_type":"survey-text","trial_index":74,"time_elapsed":363006,"internal_node_id":"0.0-20.0"}]