[{"view_history":"[{\"page_index\":0,\"viewing_time\":12424.660000018775},{\"page_index\":1,\"viewing_time\":5135.81999996677},{\"page_index\":2,\"viewing_time\":8951.910000003409},{\"page_index\":3,\"viewing_time\":7520.019999996293},{\"page_index\":4,\"viewing_time\":2215.974999999162},{\"page_index\":5,\"viewing_time\":1551.915000018198}]","rt":37801.129999978,"trial_type":"instructions","trial_index":0,"time_elapsed":37803,"internal_node_id":"0.0-0.0"},{"rt":4749.279999989085,"responses":"{\"Q0\":\"Yes\",\"Q1\":\"Yes\",\"Q2\":\"Yes\"}","question_order":"[0,1,2]","trial_type":"survey-multi-choice","trial_index":1,"time_elapsed":42554,"internal_node_id":"0.0-1.0-0.0"},{"rt":9341.955000010785,"responses":"{\"Q0\":\"Yes\",\"Q1\":\"Yes\",\"Q2\":\"Yes\"}","question_order":"[0,1,2]","trial_type":"survey-multi-choice","trial_index":2,"time_elapsed":51898,"internal_node_id":"0.0-2.0-0.0"},{"rt":6374.180000042543,"responses":"{\"Q0\":\"5fdfced684b3a989a1a576b8\"}","trial_type":"survey-text","trial_index":3,"time_elapsed":58275,"internal_node_id":"0.0-3.0"},{"rt":2725.9049999993294,"responses":"{\"Q0\":\"Male\",\"Q1\":\"18-25\"}","question_order":"[0,1]","trial_type":"survey-multi-choice","trial_index":4,"time_elapsed":61005,"internal_node_id":"0.0-4.0"},{"rt":5757.704999996349,"responses":"{\"Q0\":\"No\"}","trial_type":"survey-text","trial_index":5,"time_elapsed":66764,"internal_node_id":"0.0-5.0"},{"view_history":"[{\"page_index\":0,\"viewing_time\":3359.2700000153854}]","rt":3359.519999998156,"trial_type":"instructions","trial_index":6,"time_elapsed":70124,"internal_node_id":"0.0-6.0"},{"rt":11527.204999991227,"responses":"{\"Interested\":3,\"Distressed\":3,\"Excited\":3,\"Upset\":1}","question_order":"[0,1,2,3]","trial_type":"survey-likert","trial_index":7,"time_elapsed":81653,"internal_node_id":"0.0-7.0"},{"rt":6990.084999997634,"responses":"{\"Strong\":4,\"Guilty\":3,\"Scared\":3,\"Hostile\":4}","question_order":"[0,1,2,3]","trial_type":"survey-likert","trial_index":8,"time_elapsed":88645,"internal_node_id":"0.0-8.0"},{"rt":6677.924999967217,"responses":"{\"Enthusiastic\":4,\"Proud\":1,\"Irritable\":4,\"Alert\":4}","question_order":"[0,1,2,3]","trial_type":"survey-likert","trial_index":9,"time_elapsed":95325,"internal_node_id":"0.0-9.0"},{"rt":6342.609999992419,"responses":"{\"Ashamed\":3,\"Inspired\":4,\"Nervous\":1,\"Determined\":4}","question_order":"[0,1,2,3]","trial_type":"survey-likert","trial_index":10,"time_elapsed":101669,"internal_node_id":"0.0-10.0"},{"rt":5254.365000000689,"responses":"{\"Attentive\":4,\"Jittery\":4,\"Active\":4,\"Afraid\":1}","question_order":"[0,1,2,3]","trial_type":"survey-likert","trial_index":11,"time_elapsed":106925,"internal_node_id":"0.0-11.0"},{"rt":11326.360000006389,"responses":"{\"Q0\":2,\"Q1\":0,\"Q2\":2,\"Q3\":3}","question_order":"[0,1,2,3]","trial_type":"survey-likert","trial_index":12,"time_elapsed":118253,"internal_node_id":"0.0-12.0"},{"rt":16334.764999977779,"responses":"{\"Q0\":1,\"Q1\":1,\"Q2\":2,\"Q3\":0}","question_order":"[0,1,2,3]","trial_type":"survey-likert","trial_index":13,"time_elapsed":134591,"internal_node_id":"0.0-13.0"},{"rt":11494.59499999648,"responses":"{\"Q0\":1,\"Q1\":1,\"Q2\":2,\"Q3\":3}","question_order":"[0,1,2,3]","trial_type":"survey-likert","trial_index":14,"time_elapsed":146087,"internal_node_id":"0.0-14.0"},{"rt":10150.64499998698,"responses":"{\"Q0\":1,\"Q1\":3,\"Q2\":2}","question_order":"[0,1,2]","trial_type":"survey-likert","trial_index":15,"time_elapsed":156239,"internal_node_id":"0.0-15.0"},{"view_history":"[{\"page_index\":0,\"viewing_time\":2293.100000009872},{\"page_index\":1,\"viewing_time\":4056.029999977909},{\"page_index\":2,\"viewing_time\":6151.914999994915}]","rt":12501.439999963623,"trial_type":"instructions","trial_index":16,"time_elapsed":168743,"internal_node_id":"0.0-16.0"},{"rt":934.5899999607354,"stimulus":"<p>Choose a box,</p>","button_pressed":1,"trial_type":"html-button-response","trial_index":17,"time_elapsed":169679,"internal_node_id":"0.0-17.0-0.0"},{"rate":0.35275069325435565,"trial_type":"html-keyboard-response","trial_index":18,"time_elapsed":169680,"internal_node_id":"0.0-17.0-1.0"},{"rt":null,"stimulus":"<div style=\"background-color:#6dce98\"><h1 style=\"background-color:MediumSeaGreen\" >You won a prize! Well done!</h1><div style=\"background-color:#6dce98\"><h1 style=\"background-color:MediumSeaGreen\" >Only 19 left to go!</h1><img id=\"box\" src=\"img/prizes/flowers.png\"></img><img id=\"box\" src=\"img/empty/greenopenbox.png\"></img></div>","key_press":null,"trial_type":"html-keyboard-response","trial_index":18,"time_elapsed":171182,"internal_node_id":"0.0-17.0-1.0"},{"rt":735.5299999471754,"stimulus":"<p>Choose a box,</p>","button_pressed":2,"trial_type":"html-button-response","trial_index":19,"time_elapsed":171919,"internal_node_id":"0.0-17.0-0.1"},{"rate":0.15371492296689906,"trial_type":"html-keyboard-response","trial_index":20,"time_elapsed":171919,"internal_node_id":"0.0-17.0-1.1"},{"rt":null,"stimulus":"<div style=\"background-color:#6dce98\"><h1 style=\"background-color:MediumSeaGreen\" >You won a prize! Well done!</h1><div style=\"background-color:#6dce98\"><h1 style=\"background-color:MediumSeaGreen\" >Only 18 left to go!</h1><img id=\"box\" src=\"img/prizes/coins.png\"></img><img id=\"box\" src=\"img/empty/purpleopenbox.png\"></img></div>","key_press":null,"trial_type":"html-keyboard-response","trial_index":20,"time_elapsed":173429,"internal_node_id":"0.0-17.0-1.1"},{"rt":936.130000045523,"stimulus":"<p>Choose a box,</p>","button_pressed":0,"trial_type":"html-button-response","trial_index":21,"time_elapsed":174367,"internal_node_id":"0.0-17.0-0.2"},{"rate":0.5035771195235619,"trial_type":"html-keyboard-response","trial_index":22,"time_elapsed":174367,"internal_node_id":"0.0-17.0-1.2"},{"rt":null,"stimulus":"<div style=\"background-color:#6dce98\"><h1 style=\"background-color:MediumSeaGreen\" >You won a prize! Well done!</h1><div style=\"background-color:#6dce98\"><h1 style=\"background-color:MediumSeaGreen\" >Only 17 left to go!</h1><img id=\"box\" src=\"img/prizes/beachball.png\"></img><img id=\"box\" src=\"img/empty/blueopenbox.png\"></img></div>","key_press":null,"trial_type":"html-keyboard-response","trial_index":22,"time_elapsed":175879,"internal_node_id":"0.0-17.0-1.2"},{"view_history":"[{\"page_index\":0,\"viewing_time\":3837.8600000287406}]","rt":3838.125000009313,"trial_type":"instructions","trial_index":23,"time_elapsed":179721,"internal_node_id":"0.0-18.0"},{"rt":590.8449999988079,"stimulus":"<p>Choose a box,</p>","button_pressed":1,"trial_type":"html-button-response","trial_index":24,"time_elapsed":180313,"internal_node_id":"0.0-19.0-0.0"},{"rate":0.9155358897079401,"trial_type":"html-keyboard-response","trial_index":25,"time_elapsed":180313,"internal_node_id":"0.0-19.0-1.0"},{"rt":null,"stimulus":"<div style=\"background-color:#ff7157\"><h1 style=\"background-color:Tomato\">Bad luck! There was no prize in the box!</h1><h1 style=\"background-color:Tomato\">Remember, you need to keep going until you have 20 prizes!</h1><img id=\"box\" src=\"img/sad/greenopenboxsadthumb.png\"></img></div>","key_press":null,"trial_type":"html-keyboard-response","trial_index":25,"time_elapsed":181827,"internal_node_id":"0.0-19.0-1.0"},{"rt":852.7999999932945,"stimulus":"<p>Choose a box,</p>","button_pressed":3,"trial_type":"html-button-response","trial_index":26,"time_elapsed":182681,"internal_node_id":"0.0-19.1-0.1"},{"rate":0.3942331183307128,"trial_type":"html-keyboard-response","trial_index":27,"time_elapsed":182681,"internal_node_id":"0.0-19.1-1.1"},{"rt":null,"stimulus":"<div style=\"background-color:#ff7157\"><h1 style=\"background-color:Tomato\">Bad luck! There was no prize in the box!</h1><h1 style=\"background-color:Tomato\">Remember, you need to keep going until you have 20 prizes!</h1><img id=\"box\" src=\"img/sad/redopenboxsadthumb.png\"></img></div>","key_press":null,"trial_type":"html-keyboard-response","trial_index":27,"time_elapsed":184197,"internal_node_id":"0.0-19.1-1.1"},{"rt":490.99500000011176,"stimulus":"<p>Choose a box,</p>","button_pressed":2,"trial_type":"html-button-response","trial_index":28,"time_elapsed":184689,"internal_node_id":"0.0-19.2-0.2"},{"rate":0.08623938330589491,"trial_type":"html-keyboard-response","trial_index":29,"time_elapsed":184689,"internal_node_id":"0.0-19.2-1.2"},{"rt":null,"stimulus":"<div style=\"background-color:#ff7157\"><h1 style=\"background-color:Tomato\">Bad luck! There was no prize in the box!</h1><h1 style=\"background-color:Tomato\">Remember, you need to keep going until you have 20 prizes!</h1><img id=\"box\" src=\"img/sad/purpleopenboxsadthumb.png\"></img></div>","key_press":null,"trial_type":"html-keyboard-response","trial_index":29,"time_elapsed":186202,"internal_node_id":"0.0-19.2-1.2"},{"rt":518.2550000026822,"stimulus":"<p>Choose a box,</p>","button_pressed":0,"trial_type":"html-button-response","trial_index":30,"time_elapsed":186721,"internal_node_id":"0.0-19.3-0.3"},{"rate":0.6692413761174465,"trial_type":"html-keyboard-response","trial_index":31,"time_elapsed":186721,"internal_node_id":"0.0-19.3-1.3"},{"rt":null,"stimulus":"<div style=\"background-color:#6dce98\"><h1 style=\"background-color:MediumSeaGreen\" >You won a prize! Well done!</h1><div style=\"background-color:#6dce98\"><h1 style=\"background-color:MediumSeaGreen\" >Only 19 left to go!</h1><img id=\"box\" src=\"img/prizes/lolipop.png\"></img><img id=\"box\" src=\"img/empty/blueopenbox.png\"></img></div>","key_press":null,"trial_type":"html-keyboard-response","trial_index":31,"time_elapsed":188229,"internal_node_id":"0.0-19.3-1.3"},{"rt":611.269999993965,"stimulus":"<p>Choose a box,</p>","button_pressed":1,"trial_type":"html-button-response","trial_index":32,"time_elapsed":188841,"internal_node_id":"0.0-19.4-0.4"},{"rate":0.9155358897079401,"trial_type":"html-keyboard-response","trial_index":33,"time_elapsed":188841,"internal_node_id":"0.0-19.4-1.4"},{"rt":null,"stimulus":"<div style=\"background-color:#6dce98\"><h1 style=\"background-color:MediumSeaGreen\" >You won a prize! Well done!</h1><div style=\"background-color:#6dce98\"><h1 style=\"background-color:MediumSeaGreen\" >Only 18 left to go!</h1><img id=\"box\" src=\"img/prizes/beachball.png\"></img><img id=\"box\" src=\"img/empty/greenopenbox.png\"></img></div>","key_press":null,"trial_type":"html-keyboard-response","trial_index":33,"time_elapsed":190353,"internal_node_id":"0.0-19.4-1.4"},{"rt":447.1900000353344,"stimulus":"<p>Choose a box,</p>","button_pressed":2,"trial_type":"html-button-response","trial_index":34,"time_elapsed":190801,"internal_node_id":"0.0-19.5-0.5"},{"rate":0.08623938330589491,"trial_type":"html-keyboard-response","trial_index":35,"time_elapsed":190801,"internal_node_id":"0.0-19.5-1.5"},{"rt":null,"stimulus":"<div style=\"background-color:#ff7157\"><h1 style=\"background-color:Tomato\">Bad luck! There was no prize in the box!</h1><h1 style=\"background-color:Tomato\">Remember, you need to keep going until you have 20 prizes!</h1><img id=\"box\" src=\"img/sad/purpleopenboxsadthumb.png\"></img></div>","key_press":null,"trial_type":"html-keyboard-response","trial_index":35,"time_elapsed":192303,"internal_node_id":"0.0-19.5-1.5"},{"rt":1609.4300000113435,"stimulus":"<p>Choose a box,</p>","button_pressed":0,"trial_type":"html-button-response","trial_index":36,"time_elapsed":193913,"internal_node_id":"0.0-19.6-0.6"},{"rate":0.6692413761174465,"trial_type":"html-keyboard-response","trial_index":37,"time_elapsed":193913,"internal_node_id":"0.0-19.6-1.6"},{"rt":null,"stimulus":"<div style=\"background-color:#6dce98\"><h1 style=\"background-color:MediumSeaGreen\" >You won a prize! Well done!</h1><div style=\"background-color:#6dce98\"><h1 style=\"background-color:MediumSeaGreen\" >Only 17 left to go!</h1><img id=\"box\" src=\"img/prizes/flowers.png\"></img><img id=\"box\" src=\"img/empty/blueopenbox.png\"></img></div>","key_press":null,"trial_type":"html-keyboard-response","trial_index":37,"time_elapsed":195416,"internal_node_id":"0.0-19.6-1.6"},{"rt":568.1149999727495,"stimulus":"<p>Choose a box,</p>","button_pressed":0,"trial_type":"html-button-response","trial_index":38,"time_elapsed":195985,"internal_node_id":"0.0-19.7-0.7"},{"rate":0.6692413761174465,"trial_type":"html-keyboard-response","trial_index":39,"time_elapsed":195985,"internal_node_id":"0.0-19.7-1.7"},{"rt":null,"stimulus":"<div style=\"background-color:#6dce98\"><h1 style=\"background-color:MediumSeaGreen\" >You won a prize! Well done!</h1><div style=\"background-color:#6dce98\"><h1 style=\"background-color:MediumSeaGreen\" >Only 16 left to go!</h1><img id=\"box\" src=\"img/prizes/beachball.png\"></img><img id=\"box\" src=\"img/empty/blueopenbox.png\"></img></div>","key_press":null,"trial_type":"html-keyboard-response","trial_index":39,"time_elapsed":197488,"internal_node_id":"0.0-19.7-1.7"},{"rt":320.23000001208857,"stimulus":"<p>Choose a box,</p>","button_pressed":0,"trial_type":"html-button-response","trial_index":40,"time_elapsed":197809,"internal_node_id":"0.0-19.8-0.8"},{"rate":0.6692413761174465,"trial_type":"html-keyboard-response","trial_index":41,"time_elapsed":197809,"internal_node_id":"0.0-19.8-1.8"},{"rt":null,"stimulus":"<div style=\"background-color:#ff7157\"><h1 style=\"background-color:Tomato\">Bad luck! There was no prize in the box!</h1><h1 style=\"background-color:Tomato\">Remember, you need to keep going until you have 20 prizes!</h1><img id=\"box\" src=\"img/sad/blueopenboxsadthumb.png\"></img></div>","key_press":null,"trial_type":"html-keyboard-response","trial_index":41,"time_elapsed":199318,"internal_node_id":"0.0-19.8-1.8"},{"rt":377.65999999828637,"stimulus":"<p>Choose a box,</p>","button_pressed":1,"trial_type":"html-button-response","trial_index":42,"time_elapsed":199697,"internal_node_id":"0.0-19.9-0.9"},{"rate":0.9155358897079401,"trial_type":"html-keyboard-response","trial_index":43,"time_elapsed":199697,"internal_node_id":"0.0-19.9-1.9"},{"rt":null,"stimulus":"<div style=\"background-color:#6dce98\"><h1 style=\"background-color:MediumSeaGreen\" >You won a prize! Well done!</h1><div style=\"background-color:#6dce98\"><h1 style=\"background-color:MediumSeaGreen\" >Only 15 left to go!</h1><img id=\"box\" src=\"img/prizes/flowers.png\"></img><img id=\"box\" src=\"img/empty/greenopenbox.png\"></img></div>","key_press":null,"trial_type":"html-keyboard-response","trial_index":43,"time_elapsed":201200,"internal_node_id":"0.0-19.9-1.9"},{"rt":463.83000002242625,"stimulus":"<p>Choose a box,</p>","button_pressed":0,"trial_type":"html-button-response","trial_index":44,"time_elapsed":201665,"internal_node_id":"0.0-19.10-0.10"},{"rate":0.6692413761174465,"trial_type":"html-keyboard-response","trial_index":45,"time_elapsed":201665,"internal_node_id":"0.0-19.10-1.10"},{"rt":null,"stimulus":"<div style=\"background-color:#6dce98\"><h1 style=\"background-color:MediumSeaGreen\" >You won a prize! Well done!</h1><div style=\"background-color:#6dce98\"><h1 style=\"background-color:MediumSeaGreen\" >Only 14 left to go!</h1><img id=\"box\" src=\"img/prizes/coins.png\"></img><img id=\"box\" src=\"img/empty/blueopenbox.png\"></img></div>","key_press":null,"trial_type":"html-keyboard-response","trial_index":45,"time_elapsed":203180,"internal_node_id":"0.0-19.10-1.10"},{"rt":364.17999997502193,"stimulus":"<p>Choose a box,</p>","button_pressed":1,"trial_type":"html-button-response","trial_index":46,"time_elapsed":203545,"internal_node_id":"0.0-19.11-0.11"},{"rate":0.9155358897079401,"trial_type":"html-keyboard-response","trial_index":47,"time_elapsed":203545,"internal_node_id":"0.0-19.11-1.11"},{"rt":null,"stimulus":"<div style=\"background-color:#6dce98\"><h1 style=\"background-color:MediumSeaGreen\" >You won a prize! Well done!</h1><div style=\"background-color:#6dce98\"><h1 style=\"background-color:MediumSeaGreen\" >Only 13 left to go!</h1><img id=\"box\" src=\"img/prizes/coins.png\"></img><img id=\"box\" src=\"img/empty/greenopenbox.png\"></img></div>","key_press":null,"trial_type":"html-keyboard-response","trial_index":47,"time_elapsed":205047,"internal_node_id":"0.0-19.11-1.11"},{"rt":289.40000000875443,"stimulus":"<p>Choose a box,</p>","button_pressed":0,"trial_type":"html-button-response","trial_index":48,"time_elapsed":205337,"internal_node_id":"0.0-19.12-0.12"},{"rate":0.6692413761174465,"trial_type":"html-keyboard-response","trial_index":49,"time_elapsed":205337,"internal_node_id":"0.0-19.12-1.12"},{"rt":null,"stimulus":"<div style=\"background-color:#6dce98\"><h1 style=\"background-color:MediumSeaGreen\" >You won a prize! Well done!</h1><div style=\"background-color:#6dce98\"><h1 style=\"background-color:MediumSeaGreen\" >Only 12 left to go!</h1><img id=\"box\" src=\"img/prizes/beachball.png\"></img><img id=\"box\" src=\"img/empty/blueopenbox.png\"></img></div>","key_press":null,"trial_type":"html-keyboard-response","trial_index":49,"time_elapsed":206847,"internal_node_id":"0.0-19.12-1.12"},{"rt":288.80999999819323,"stimulus":"<p>Choose a box,</p>","button_pressed":1,"trial_type":"html-button-response","trial_index":50,"time_elapsed":207137,"internal_node_id":"0.0-19.13-0.13"},{"rate":0.9155358897079401,"trial_type":"html-keyboard-response","trial_index":51,"time_elapsed":207137,"internal_node_id":"0.0-19.13-1.13"},{"rt":null,"stimulus":"<div style=\"background-color:#6dce98\"><h1 style=\"background-color:MediumSeaGreen\" >You won a prize! Well done!</h1><div style=\"background-color:#6dce98\"><h1 style=\"background-color:MediumSeaGreen\" >Only 11 left to go!</h1><img id=\"box\" src=\"img/prizes/flowers.png\"></img><img id=\"box\" src=\"img/empty/greenopenbox.png\"></img></div>","key_press":null,"trial_type":"html-keyboard-response","trial_index":51,"time_elapsed":208652,"internal_node_id":"0.0-19.13-1.13"},{"rt":236.14499997347593,"stimulus":"<p>Choose a box,</p>","button_pressed":0,"trial_type":"html-button-response","trial_index":52,"time_elapsed":208889,"internal_node_id":"0.0-19.14-0.14"},{"rate":0.6692413761174465,"trial_type":"html-keyboard-response","trial_index":53,"time_elapsed":208889,"internal_node_id":"0.0-19.14-1.14"},{"rt":null,"stimulus":"<div style=\"background-color:#6dce98\"><h1 style=\"background-color:MediumSeaGreen\" >You won a prize! Well done!</h1><div style=\"background-color:#6dce98\"><h1 style=\"background-color:MediumSeaGreen\" >Only 10 left to go!</h1><img id=\"box\" src=\"img/prizes/duck.png\"></img><img id=\"box\" src=\"img/empty/blueopenbox.png\"></img></div>","key_press":null,"trial_type":"html-keyboard-response","trial_index":53,"time_elapsed":210392,"internal_node_id":"0.0-19.14-1.14"},{"rt":407.92999998666346,"stimulus":"<p>Choose a box,</p>","button_pressed":1,"trial_type":"html-button-response","trial_index":54,"time_elapsed":210801,"internal_node_id":"0.0-19.15-0.15"},{"rate":0.9155358897079401,"trial_type":"html-keyboard-response","trial_index":55,"time_elapsed":210801,"internal_node_id":"0.0-19.15-1.15"},{"rt":null,"stimulus":"<div style=\"background-color:#6dce98\"><h1 style=\"background-color:MediumSeaGreen\" >You won a prize! Well done!</h1><div style=\"background-color:#6dce98\"><h1 style=\"background-color:MediumSeaGreen\" >Only 9 left to go!</h1><img id=\"box\" src=\"img/prizes/beachball.png\"></img><img id=\"box\" src=\"img/empty/greenopenbox.png\"></img></div>","key_press":null,"trial_type":"html-keyboard-response","trial_index":55,"time_elapsed":212309,"internal_node_id":"0.0-19.15-1.15"},{"rt":635.1649999851361,"stimulus":"<p>Choose a box,</p>","button_pressed":0,"trial_type":"html-button-response","trial_index":56,"time_elapsed":212945,"internal_node_id":"0.0-19.16-0.16"},{"rate":0.6692413761174465,"trial_type":"html-keyboard-response","trial_index":57,"time_elapsed":212945,"internal_node_id":"0.0-19.16-1.16"},{"rt":null,"stimulus":"<div style=\"background-color:#ff7157\"><h1 style=\"background-color:Tomato\">Bad luck! There was no prize in the box!</h1><h1 style=\"background-color:Tomato\">Remember, you need to keep going until you have 20 prizes!</h1><img id=\"box\" src=\"img/sad/blueopenboxsadthumb.png\"></img></div>","key_press":null,"trial_type":"html-keyboard-response","trial_index":57,"time_elapsed":214447,"internal_node_id":"0.0-19.16-1.16"},{"rt":281.310000049416,"stimulus":"<p>Choose a box,</p>","button_pressed":2,"trial_type":"html-button-response","trial_index":58,"time_elapsed":214729,"internal_node_id":"0.0-19.17-0.17"},{"rate":0.08623938330589491,"trial_type":"html-keyboard-response","trial_index":59,"time_elapsed":214729,"internal_node_id":"0.0-19.17-1.17"},{"rt":null,"stimulus":"<div style=\"background-color:#ff7157\"><h1 style=\"background-color:Tomato\">Bad luck! There was no prize in the box!</h1><h1 style=\"background-color:Tomato\">Remember, you need to keep going until you have 20 prizes!</h1><img id=\"box\" src=\"img/sad/purpleopenboxsadthumb.png\"></img></div>","key_press":null,"trial_type":"html-keyboard-response","trial_index":59,"time_elapsed":216230,"internal_node_id":"0.0-19.17-1.17"},{"rt":289.7550000343472,"stimulus":"<p>Choose a box,</p>","button_pressed":1,"trial_type":"html-button-response","trial_index":60,"time_elapsed":216521,"internal_node_id":"0.0-19.18-0.18"},{"rate":0.9155358897079401,"trial_type":"html-keyboard-response","trial_index":61,"time_elapsed":216521,"internal_node_id":"0.0-19.18-1.18"},{"rt":null,"stimulus":"<div style=\"background-color:#6dce98\"><h1 style=\"background-color:MediumSeaGreen\" >You won a prize! Well done!</h1><div style=\"background-color:#6dce98\"><h1 style=\"background-color:MediumSeaGreen\" >Only 8 left to go!</h1><img id=\"box\" src=\"img/prizes/choc.png\"></img><img id=\"box\" src=\"img/empty/greenopenbox.png\"></img></div>","key_press":null,"trial_type":"html-keyboard-response","trial_index":61,"time_elapsed":218025,"internal_node_id":"0.0-19.18-1.18"},{"rt":357.5499999569729,"stimulus":"<p>Choose a box,</p>","button_pressed":1,"trial_type":"html-button-response","trial_index":62,"time_elapsed":218385,"internal_node_id":"0.0-19.19-0.19"},{"rate":0.9155358897079401,"trial_type":"html-keyboard-response","trial_index":63,"time_elapsed":218385,"internal_node_id":"0.0-19.19-1.19"},{"rt":null,"stimulus":"<div style=\"background-color:#6dce98\"><h1 style=\"background-color:MediumSeaGreen\" >You won a prize! Well done!</h1><div style=\"background-color:#6dce98\"><h1 style=\"background-color:MediumSeaGreen\" >Only 7 left to go!</h1><img id=\"box\" src=\"img/prizes/flowers.png\"></img><img id=\"box\" src=\"img/empty/greenopenbox.png\"></img></div>","key_press":null,"trial_type":"html-keyboard-response","trial_index":63,"time_elapsed":219887,"internal_node_id":"0.0-19.19-1.19"},{"rt":177.00500000501052,"stimulus":"<p>Choose a box,</p>","button_pressed":0,"trial_type":"html-button-response","trial_index":64,"time_elapsed":220065,"internal_node_id":"0.0-19.20-0.20"},{"rate":0.6692413761174465,"trial_type":"html-keyboard-response","trial_index":65,"time_elapsed":220065,"internal_node_id":"0.0-19.20-1.20"},{"rt":null,"stimulus":"<div style=\"background-color:#6dce98\"><h1 style=\"background-color:MediumSeaGreen\" >You won a prize! Well done!</h1><div style=\"background-color:#6dce98\"><h1 style=\"background-color:MediumSeaGreen\" >Only 6 left to go!</h1><img id=\"box\" src=\"img/prizes/beachball.png\"></img><img id=\"box\" src=\"img/empty/blueopenbox.png\"></img></div>","key_press":null,"trial_type":"html-keyboard-response","trial_index":65,"time_elapsed":221567,"internal_node_id":"0.0-19.20-1.20"},{"rt":320.85999997798353,"stimulus":"<p>Choose a box,</p>","button_pressed":1,"trial_type":"html-button-response","trial_index":66,"time_elapsed":221889,"internal_node_id":"0.0-19.21-0.21"},{"rate":0.9155358897079401,"trial_type":"html-keyboard-response","trial_index":67,"time_elapsed":221889,"internal_node_id":"0.0-19.21-1.21"},{"rt":null,"stimulus":"<div style=\"background-color:#6dce98\"><h1 style=\"background-color:MediumSeaGreen\" >You won a prize! Well done!</h1><div style=\"background-color:#6dce98\"><h1 style=\"background-color:MediumSeaGreen\" >Only 5 left to go!</h1><img id=\"box\" src=\"img/prizes/coins.png\"></img><img id=\"box\" src=\"img/empty/greenopenbox.png\"></img></div>","key_press":null,"trial_type":"html-keyboard-response","trial_index":67,"time_elapsed":223392,"internal_node_id":"0.0-19.21-1.21"},{"rt":216.1049999995157,"stimulus":"<p>Choose a box,</p>","button_pressed":0,"trial_type":"html-button-response","trial_index":68,"time_elapsed":223609,"internal_node_id":"0.0-19.22-0.22"},{"rate":0.6692413761174465,"trial_type":"html-keyboard-response","trial_index":69,"time_elapsed":223609,"internal_node_id":"0.0-19.22-1.22"},{"rt":null,"stimulus":"<div style=\"background-color:#ff7157\"><h1 style=\"background-color:Tomato\">Bad luck! There was no prize in the box!</h1><h1 style=\"background-color:Tomato\">Remember, you need to keep going until you have 20 prizes!</h1><img id=\"box\" src=\"img/sad/blueopenboxsadthumb.png\"></img></div>","key_press":null,"trial_type":"html-keyboard-response","trial_index":69,"time_elapsed":225116,"internal_node_id":"0.0-19.22-1.22"},{"rt":259.8149999976158,"stimulus":"<p>Choose a box,</p>","button_pressed":1,"trial_type":"html-button-response","trial_index":70,"time_elapsed":225377,"internal_node_id":"0.0-19.23-0.23"},{"rate":0.9155358897079401,"trial_type":"html-keyboard-response","trial_index":71,"time_elapsed":225377,"internal_node_id":"0.0-19.23-1.23"},{"rt":null,"stimulus":"<div style=\"background-color:#6dce98\"><h1 style=\"background-color:MediumSeaGreen\" >You won a prize! Well done!</h1><div style=\"background-color:#6dce98\"><h1 style=\"background-color:MediumSeaGreen\" >Only 4 left to go!</h1><img id=\"box\" src=\"img/prizes/flowers.png\"></img><img id=\"box\" src=\"img/empty/greenopenbox.png\"></img></div>","key_press":null,"trial_type":"html-keyboard-response","trial_index":71,"time_elapsed":226881,"internal_node_id":"0.0-19.23-1.23"},{"rt":255.03999995999038,"stimulus":"<p>Choose a box,</p>","button_pressed":1,"trial_type":"html-button-response","trial_index":72,"time_elapsed":227137,"internal_node_id":"0.0-19.24-0.24"},{"rate":0.9155358897079401,"trial_type":"html-keyboard-response","trial_index":73,"time_elapsed":227137,"internal_node_id":"0.0-19.24-1.24"},{"rt":null,"stimulus":"<div style=\"background-color:#6dce98\"><h1 style=\"background-color:MediumSeaGreen\" >You won a prize! Well done!</h1><div style=\"background-color:#6dce98\"><h1 style=\"background-color:MediumSeaGreen\" >Only 3 left to go!</h1><img id=\"box\" src=\"img/prizes/ring.png\"></img><img id=\"box\" src=\"img/empty/greenopenbox.png\"></img></div>","key_press":null,"trial_type":"html-keyboard-response","trial_index":73,"time_elapsed":228640,"internal_node_id":"0.0-19.24-1.24"},{"rt":239.850000012666,"stimulus":"<p>Choose a box,</p>","button_pressed":1,"trial_type":"html-button-response","trial_index":74,"time_elapsed":228881,"internal_node_id":"0.0-19.25-0.25"},{"rate":0.9155358897079401,"trial_type":"html-keyboard-response","trial_index":75,"time_elapsed":228881,"internal_node_id":"0.0-19.25-1.25"},{"rt":null,"stimulus":"<div style=\"background-color:#6dce98\"><h1 style=\"background-color:MediumSeaGreen\" >You won a prize! Well done!</h1><div style=\"background-color:#6dce98\"><h1 style=\"background-color:MediumSeaGreen\" >Only 2 left to go!</h1><img id=\"box\" src=\"img/prizes/duck.png\"></img><img id=\"box\" src=\"img/empty/greenopenbox.png\"></img></div>","key_press":null,"trial_type":"html-keyboard-response","trial_index":75,"time_elapsed":230387,"internal_node_id":"0.0-19.25-1.25"},{"rt":444.58000001031905,"stimulus":"<p>Choose a box,</p>","button_pressed":1,"trial_type":"html-button-response","trial_index":76,"time_elapsed":230833,"internal_node_id":"0.0-19.26-0.26"},{"rate":0.9155358897079401,"trial_type":"html-keyboard-response","trial_index":77,"time_elapsed":230833,"internal_node_id":"0.0-19.26-1.26"},{"rt":null,"stimulus":"<div style=\"background-color:#6dce98\"><h1 style=\"background-color:MediumSeaGreen\" >You won a prize! Well done!</h1><div style=\"background-color:#6dce98\"><h1 style=\"background-color:MediumSeaGreen\" >Only 1 left to go!</h1><img id=\"box\" src=\"img/prizes/choc.png\"></img><img id=\"box\" src=\"img/empty/greenopenbox.png\"></img></div>","key_press":null,"trial_type":"html-keyboard-response","trial_index":77,"time_elapsed":232335,"internal_node_id":"0.0-19.26-1.26"},{"rt":248.80000000121072,"stimulus":"<p>Choose a box,</p>","button_pressed":1,"trial_type":"html-button-response","trial_index":78,"time_elapsed":232585,"internal_node_id":"0.0-19.27-0.27"},{"rate":0.9155358897079401,"trial_type":"html-keyboard-response","trial_index":79,"time_elapsed":232585,"internal_node_id":"0.0-19.27-1.27"},{"rt":null,"stimulus":"<div style=\"background-color:#6dce98\"><h1 style=\"background-color:MediumSeaGreen\" >You won a prize! Well done!</h1><div style=\"background-color:#6dce98\"><h1 style=\"background-color:MediumSeaGreen\" >Only 0 left to go!</h1><img id=\"box\" src=\"img/prizes/ring.png\"></img><img id=\"box\" src=\"img/empty/greenopenbox.png\"></img></div>","key_press":null,"trial_type":"html-keyboard-response","trial_index":79,"time_elapsed":234095,"internal_node_id":"0.0-19.27-1.27"},{"rt":57145.275000017136,"responses":"{\"Q0\":\"It was interesting, im sure that there must be a conclusion to take out of here.\",\"Q1\":\"I noticed a pattern, the blue and green boxes gave out prizes almost every round.\"}","trial_type":"survey-text","trial_index":80,"time_elapsed":291252,"internal_node_id":"0.0-20.0"}]