[{"view_history":"[{\"page_index\":0,\"viewing_time\":52601.049999997485},{\"page_index\":1,\"viewing_time\":7925.27500000142},{\"page_index\":2,\"viewing_time\":5839.154999994207},{\"page_index\":3,\"viewing_time\":8296.255000008387},{\"page_index\":4,\"viewing_time\":7599.709999994957},{\"page_index\":5,\"viewing_time\":8664.810000002035}]","rt":90928.28500000178,"trial_type":"instructions","trial_index":0,"time_elapsed":90934,"internal_node_id":"0.0-0.0"},{"rt":15146.295000013197,"responses":"{\"Q0\":\"Yes\",\"Q1\":\"Yes\",\"Q2\":\"Yes\"}","question_order":"[0,1,2]","trial_type":"survey-multi-choice","trial_index":1,"time_elapsed":106085,"internal_node_id":"0.0-1.0-0.0"},{"rt":22161.435000001802,"responses":"{\"Q0\":\"Yes\",\"Q1\":\"Yes\",\"Q2\":\"Yes\"}","question_order":"[0,1,2]","trial_type":"survey-multi-choice","trial_index":2,"time_elapsed":128252,"internal_node_id":"0.0-2.0-0.0"},{"rt":10504.289999997127,"responses":"{\"Q0\":\"601c3697abe00c6e9553bd54\"}","trial_type":"survey-text","trial_index":3,"time_elapsed":138773,"internal_node_id":"0.0-3.0"},{"rt":6442.88499999675,"responses":"{\"Q0\":\"Female\",\"Q1\":\"35-44\"}","question_order":"[0,1]","trial_type":"survey-multi-choice","trial_index":4,"time_elapsed":145221,"internal_node_id":"0.0-4.0"},{"rt":9031.619999994291,"responses":"{\"Q0\":\"no\"}","trial_type":"survey-text","trial_index":5,"time_elapsed":154260,"internal_node_id":"0.0-5.0"},{"view_history":"[{\"page_index\":0,\"viewing_time\":5521.919999999227}]","rt":5522.819999998319,"trial_type":"instructions","trial_index":6,"time_elapsed":159787,"internal_node_id":"0.0-6.0"},{"rt":18333.384999990813,"responses":"{\"Interested\":2,\"Distressed\":1,\"Excited\":3,\"Upset\":1}","question_order":"[0,1,2,3]","trial_type":"survey-likert","trial_index":7,"time_elapsed":178126,"internal_node_id":"0.0-7.0"},{"rt":17320.610000009765,"responses":"{\"Strong\":2,\"Guilty\":0,\"Scared\":1,\"Hostile\":0}","question_order":"[0,1,2,3]","trial_type":"survey-likert","trial_index":8,"time_elapsed":195452,"internal_node_id":"0.0-8.0"},{"rt":13113.929999992251,"responses":"{\"Enthusiastic\":3,\"Proud\":2,\"Irritable\":1,\"Alert\":2}","question_order":"[0,1,2,3]","trial_type":"survey-likert","trial_index":9,"time_elapsed":208571,"internal_node_id":"0.0-9.0"},{"rt":11611.3800000021,"responses":"{\"Ashamed\":1,\"Inspired\":3,\"Nervous\":1,\"Determined\":2}","question_order":"[0,1,2,3]","trial_type":"survey-likert","trial_index":10,"time_elapsed":220188,"internal_node_id":"0.0-10.0"},{"rt":14865.90000000433,"responses":"{\"Attentive\":3,\"Jittery\":1,\"Active\":3,\"Afraid\":1}","question_order":"[0,1,2,3]","trial_type":"survey-likert","trial_index":11,"time_elapsed":235061,"internal_node_id":"0.0-11.0"},{"rt":96968.52999999828,"responses":"{\"Q0\":0,\"Q1\":0,\"Q2\":1,\"Q3\":1}","question_order":"[0,1,2,3]","trial_type":"survey-likert","trial_index":12,"time_elapsed":332040,"internal_node_id":"0.0-12.0"},{"rt":17764.329999990878,"responses":"{\"Q0\":1,\"Q1\":0,\"Q2\":1,\"Q3\":0}","question_order":"[0,1,2,3]","trial_type":"survey-likert","trial_index":13,"time_elapsed":349810,"internal_node_id":"0.0-13.0"},{"rt":29583.874999996624,"responses":"{\"Q0\":1,\"Q1\":1,\"Q2\":1,\"Q3\":1}","question_order":"[0,1,2,3]","trial_type":"survey-likert","trial_index":14,"time_elapsed":379399,"internal_node_id":"0.0-14.0"},{"rt":19801.175000000512,"responses":"{\"Q0\":0,\"Q1\":0,\"Q2\":0}","question_order":"[0,1,2]","trial_type":"survey-likert","trial_index":15,"time_elapsed":399205,"internal_node_id":"0.0-15.0"},{"view_history":"[{\"page_index\":0,\"viewing_time\":2044.5100000069942},{\"page_index\":1,\"viewing_time\":10640.620000005583},{\"page_index\":2,\"viewing_time\":3767.5400000007357}]","rt":16454.685000004247,"trial_type":"instructions","trial_index":16,"time_elapsed":415685,"internal_node_id":"0.0-16.0"},{"rt":3714.7300000069663,"stimulus":"<p>Choose a box,</p>","button_pressed":0,"trial_type":"html-button-response","trial_index":17,"time_elapsed":419406,"internal_node_id":"0.0-17.0-0.0"},{"rate":0.36092050788772834,"trial_type":"html-keyboard-response","trial_index":18,"time_elapsed":419407,"internal_node_id":"0.0-17.0-1.0"},{"rt":null,"stimulus":"<div style=\"background-color:#ff7157\"><h1 style=\"background-color:Tomato\">Bad luck! There was no prize in the box!</h1><h1 style=\"background-color:Tomato\">Remember, you need to keep going until you have 20 prizes!</h1><img id=\"box\" src=\"img/sad/blueopenboxsadthumb.png\"></img></div>","key_press":null,"trial_type":"html-keyboard-response","trial_index":18,"time_elapsed":420917,"internal_node_id":"0.0-17.0-1.0"},{"rt":3020.635000008042,"stimulus":"<p>Choose a box,</p>","button_pressed":2,"trial_type":"html-button-response","trial_index":19,"time_elapsed":423942,"internal_node_id":"0.0-17.0-0.1"},{"rate":0.18571614638922865,"trial_type":"html-keyboard-response","trial_index":20,"time_elapsed":423943,"internal_node_id":"0.0-17.0-1.1"},{"rt":null,"stimulus":"<div style=\"background-color:#ff7157\"><h1 style=\"background-color:Tomato\">Bad luck! There was no prize in the box!</h1><h1 style=\"background-color:Tomato\">Remember, you need to keep going until you have 20 prizes!</h1><img id=\"box\" src=\"img/sad/purpleopenboxsadthumb.png\"></img></div>","key_press":null,"trial_type":"html-keyboard-response","trial_index":20,"time_elapsed":425448,"internal_node_id":"0.0-17.0-1.1"},{"rt":2050.839999996242,"stimulus":"<p>Choose a box,</p>","button_pressed":2,"trial_type":"html-button-response","trial_index":21,"time_elapsed":427503,"internal_node_id":"0.0-17.0-0.2"},{"rate":0.18571614638922865,"trial_type":"html-keyboard-response","trial_index":22,"time_elapsed":427503,"internal_node_id":"0.0-17.0-1.2"},{"rt":null,"stimulus":"<div style=\"background-color:#ff7157\"><h1 style=\"background-color:Tomato\">Bad luck! There was no prize in the box!</h1><h1 style=\"background-color:Tomato\">Remember, you need to keep going until you have 20 prizes!</h1><img id=\"box\" src=\"img/sad/purpleopenboxsadthumb.png\"></img></div>","key_press":null,"trial_type":"html-keyboard-response","trial_index":22,"time_elapsed":429015,"internal_node_id":"0.0-17.0-1.2"},{"view_history":"[{\"page_index\":0,\"viewing_time\":2683.499999999185}]","rt":2684.3800000060583,"trial_type":"instructions","trial_index":23,"time_elapsed":431702,"internal_node_id":"0.0-18.0"},{"rt":1388.1449999898905,"stimulus":"<p>Choose a box,</p>","button_pressed":1,"trial_type":"html-button-response","trial_index":24,"time_elapsed":433094,"internal_node_id":"0.0-19.0-0.0"},{"rate":0.5160646718022951,"trial_type":"html-keyboard-response","trial_index":25,"time_elapsed":433094,"internal_node_id":"0.0-19.0-1.0"},{"rt":null,"stimulus":"<div style=\"background-color:#ff7157\"><h1 style=\"background-color:Tomato\">Bad luck! There was no prize in the box!</h1><h1 style=\"background-color:Tomato\">Remember, you need to keep going until you have 20 prizes!</h1><img id=\"box\" src=\"img/sad/greenopenboxsadthumb.png\"></img></div>","key_press":null,"trial_type":"html-keyboard-response","trial_index":25,"time_elapsed":434605,"internal_node_id":"0.0-19.0-1.0"},{"rt":2036.2400000012713,"stimulus":"<p>Choose a box,</p>","button_pressed":0,"trial_type":"html-button-response","trial_index":26,"time_elapsed":436646,"internal_node_id":"0.0-19.1-0.1"},{"rate":0.8361843116691963,"trial_type":"html-keyboard-response","trial_index":27,"time_elapsed":436646,"internal_node_id":"0.0-19.1-1.1"},{"rt":null,"stimulus":"<div style=\"background-color:#6dce98\"><h1 style=\"background-color:MediumSeaGreen\" >You won a prize! Well done!</h1><div style=\"background-color:#6dce98\"><h1 style=\"background-color:MediumSeaGreen\" >Only 19 left to go!</h1><img id=\"box\" src=\"img/prizes/beachball.png\"></img><img id=\"box\" src=\"img/empty/blueopenbox.png\"></img></div>","key_press":null,"trial_type":"html-keyboard-response","trial_index":27,"time_elapsed":438150,"internal_node_id":"0.0-19.1-1.1"},{"rt":1572.264999995241,"stimulus":"<p>Choose a box,</p>","button_pressed":2,"trial_type":"html-button-response","trial_index":28,"time_elapsed":439726,"internal_node_id":"0.0-19.2-0.2"},{"rate":0.41421995868609274,"trial_type":"html-keyboard-response","trial_index":29,"time_elapsed":439726,"internal_node_id":"0.0-19.2-1.2"},{"rt":null,"stimulus":"<div style=\"background-color:#6dce98\"><h1 style=\"background-color:MediumSeaGreen\" >You won a prize! Well done!</h1><div style=\"background-color:#6dce98\"><h1 style=\"background-color:MediumSeaGreen\" >Only 18 left to go!</h1><img id=\"box\" src=\"img/prizes/yoyo.png\"></img><img id=\"box\" src=\"img/empty/purpleopenbox.png\"></img></div>","key_press":null,"trial_type":"html-keyboard-response","trial_index":29,"time_elapsed":441234,"internal_node_id":"0.0-19.2-1.2"},{"rt":2585.06500000658,"stimulus":"<p>Choose a box,</p>","button_pressed":0,"trial_type":"html-button-response","trial_index":30,"time_elapsed":443822,"internal_node_id":"0.0-19.3-0.3"},{"rate":0.8361843116691963,"trial_type":"html-keyboard-response","trial_index":31,"time_elapsed":443822,"internal_node_id":"0.0-19.3-1.3"},{"rt":null,"stimulus":"<div style=\"background-color:#6dce98\"><h1 style=\"background-color:MediumSeaGreen\" >You won a prize! Well done!</h1><div style=\"background-color:#6dce98\"><h1 style=\"background-color:MediumSeaGreen\" >Only 17 left to go!</h1><img id=\"box\" src=\"img/prizes/coins.png\"></img><img id=\"box\" src=\"img/empty/blueopenbox.png\"></img></div>","key_press":null,"trial_type":"html-keyboard-response","trial_index":31,"time_elapsed":445325,"internal_node_id":"0.0-19.3-1.3"},{"rt":1857.2100000019418,"stimulus":"<p>Choose a box,</p>","button_pressed":3,"trial_type":"html-button-response","trial_index":32,"time_elapsed":447185,"internal_node_id":"0.0-19.4-0.4"},{"rate":0.23666394737419552,"trial_type":"html-keyboard-response","trial_index":33,"time_elapsed":447186,"internal_node_id":"0.0-19.4-1.4"},{"rt":null,"stimulus":"<div style=\"background-color:#ff7157\"><h1 style=\"background-color:Tomato\">Bad luck! There was no prize in the box!</h1><h1 style=\"background-color:Tomato\">Remember, you need to keep going until you have 20 prizes!</h1><img id=\"box\" src=\"img/sad/redopenboxsadthumb.png\"></img></div>","key_press":null,"trial_type":"html-keyboard-response","trial_index":33,"time_elapsed":448691,"internal_node_id":"0.0-19.4-1.4"},{"rt":934.5549999998184,"stimulus":"<p>Choose a box,</p>","button_pressed":2,"trial_type":"html-button-response","trial_index":34,"time_elapsed":449630,"internal_node_id":"0.0-19.5-0.5"},{"rate":0.41421995868609274,"trial_type":"html-keyboard-response","trial_index":35,"time_elapsed":449630,"internal_node_id":"0.0-19.5-1.5"},{"rt":null,"stimulus":"<div style=\"background-color:#6dce98\"><h1 style=\"background-color:MediumSeaGreen\" >You won a prize! Well done!</h1><div style=\"background-color:#6dce98\"><h1 style=\"background-color:MediumSeaGreen\" >Only 16 left to go!</h1><img id=\"box\" src=\"img/prizes/ring.png\"></img><img id=\"box\" src=\"img/empty/purpleopenbox.png\"></img></div>","key_press":null,"trial_type":"html-keyboard-response","trial_index":35,"time_elapsed":451145,"internal_node_id":"0.0-19.5-1.5"},{"rt":1355.055000007269,"stimulus":"<p>Choose a box,</p>","button_pressed":1,"trial_type":"html-button-response","trial_index":36,"time_elapsed":452503,"internal_node_id":"0.0-19.6-0.6"},{"rate":0.5160646718022951,"trial_type":"html-keyboard-response","trial_index":37,"time_elapsed":452503,"internal_node_id":"0.0-19.6-1.6"},{"rt":null,"stimulus":"<div style=\"background-color:#ff7157\"><h1 style=\"background-color:Tomato\">Bad luck! There was no prize in the box!</h1><h1 style=\"background-color:Tomato\">Remember, you need to keep going until you have 20 prizes!</h1><img id=\"box\" src=\"img/sad/greenopenboxsadthumb.png\"></img></div>","key_press":null,"trial_type":"html-keyboard-response","trial_index":37,"time_elapsed":454015,"internal_node_id":"0.0-19.6-1.6"},{"rt":1100.204999995185,"stimulus":"<p>Choose a box,</p>","button_pressed":0,"trial_type":"html-button-response","trial_index":38,"time_elapsed":455119,"internal_node_id":"0.0-19.7-0.7"},{"rate":0.8361843116691963,"trial_type":"html-keyboard-response","trial_index":39,"time_elapsed":455119,"internal_node_id":"0.0-19.7-1.7"},{"rt":null,"stimulus":"<div style=\"background-color:#6dce98\"><h1 style=\"background-color:MediumSeaGreen\" >You won a prize! Well done!</h1><div style=\"background-color:#6dce98\"><h1 style=\"background-color:MediumSeaGreen\" >Only 15 left to go!</h1><img id=\"box\" src=\"img/prizes/lolipop.png\"></img><img id=\"box\" src=\"img/empty/blueopenbox.png\"></img></div>","key_press":null,"trial_type":"html-keyboard-response","trial_index":39,"time_elapsed":456632,"internal_node_id":"0.0-19.7-1.7"},{"rt":858.444999990752,"stimulus":"<p>Choose a box,</p>","button_pressed":2,"trial_type":"html-button-response","trial_index":40,"time_elapsed":457494,"internal_node_id":"0.0-19.8-0.8"},{"rate":0.41421995868609274,"trial_type":"html-keyboard-response","trial_index":41,"time_elapsed":457494,"internal_node_id":"0.0-19.8-1.8"},{"rt":null,"stimulus":"<div style=\"background-color:#ff7157\"><h1 style=\"background-color:Tomato\">Bad luck! There was no prize in the box!</h1><h1 style=\"background-color:Tomato\">Remember, you need to keep going until you have 20 prizes!</h1><img id=\"box\" src=\"img/sad/purpleopenboxsadthumb.png\"></img></div>","key_press":null,"trial_type":"html-keyboard-response","trial_index":41,"time_elapsed":458997,"internal_node_id":"0.0-19.8-1.8"},{"rt":781.635000006645,"stimulus":"<p>Choose a box,</p>","button_pressed":3,"trial_type":"html-button-response","trial_index":42,"time_elapsed":459783,"internal_node_id":"0.0-19.9-0.9"},{"rate":0.23666394737419552,"trial_type":"html-keyboard-response","trial_index":43,"time_elapsed":459784,"internal_node_id":"0.0-19.9-1.9"},{"rt":null,"stimulus":"<div style=\"background-color:#ff7157\"><h1 style=\"background-color:Tomato\">Bad luck! There was no prize in the box!</h1><h1 style=\"background-color:Tomato\">Remember, you need to keep going until you have 20 prizes!</h1><img id=\"box\" src=\"img/sad/redopenboxsadthumb.png\"></img></div>","key_press":null,"trial_type":"html-keyboard-response","trial_index":43,"time_elapsed":461286,"internal_node_id":"0.0-19.9-1.9"},{"rt":604.364999991958,"stimulus":"<p>Choose a box,</p>","button_pressed":1,"trial_type":"html-button-response","trial_index":44,"time_elapsed":461894,"internal_node_id":"0.0-19.10-0.10"},{"rate":0.5160646718022951,"trial_type":"html-keyboard-response","trial_index":45,"time_elapsed":461894,"internal_node_id":"0.0-19.10-1.10"},{"rt":null,"stimulus":"<div style=\"background-color:#6dce98\"><h1 style=\"background-color:MediumSeaGreen\" >You won a prize! Well done!</h1><div style=\"background-color:#6dce98\"><h1 style=\"background-color:MediumSeaGreen\" >Only 14 left to go!</h1><img id=\"box\" src=\"img/prizes/choc.png\"></img><img id=\"box\" src=\"img/empty/greenopenbox.png\"></img></div>","key_press":null,"trial_type":"html-keyboard-response","trial_index":45,"time_elapsed":463401,"internal_node_id":"0.0-19.10-1.10"},{"rt":1314.2249999946216,"stimulus":"<p>Choose a box,</p>","button_pressed":2,"trial_type":"html-button-response","trial_index":46,"time_elapsed":464718,"internal_node_id":"0.0-19.11-0.11"},{"rate":0.41421995868609274,"trial_type":"html-keyboard-response","trial_index":47,"time_elapsed":464718,"internal_node_id":"0.0-19.11-1.11"},{"rt":null,"stimulus":"<div style=\"background-color:#6dce98\"><h1 style=\"background-color:MediumSeaGreen\" >You won a prize! Well done!</h1><div style=\"background-color:#6dce98\"><h1 style=\"background-color:MediumSeaGreen\" >Only 13 left to go!</h1><img id=\"box\" src=\"img/prizes/flowers.png\"></img><img id=\"box\" src=\"img/empty/purpleopenbox.png\"></img></div>","key_press":null,"trial_type":"html-keyboard-response","trial_index":47,"time_elapsed":466223,"internal_node_id":"0.0-19.11-1.11"},{"rt":1067.9349999991246,"stimulus":"<p>Choose a box,</p>","button_pressed":0,"trial_type":"html-button-response","trial_index":48,"time_elapsed":467294,"internal_node_id":"0.0-19.12-0.12"},{"rate":0.8361843116691963,"trial_type":"html-keyboard-response","trial_index":49,"time_elapsed":467295,"internal_node_id":"0.0-19.12-1.12"},{"rt":null,"stimulus":"<div style=\"background-color:#6dce98\"><h1 style=\"background-color:MediumSeaGreen\" >You won a prize! Well done!</h1><div style=\"background-color:#6dce98\"><h1 style=\"background-color:MediumSeaGreen\" >Only 12 left to go!</h1><img id=\"box\" src=\"img/prizes/beachball.png\"></img><img id=\"box\" src=\"img/empty/blueopenbox.png\"></img></div>","key_press":null,"trial_type":"html-keyboard-response","trial_index":49,"time_elapsed":468801,"internal_node_id":"0.0-19.12-1.12"},{"rt":722.3349999985658,"stimulus":"<p>Choose a box,</p>","button_pressed":2,"trial_type":"html-button-response","trial_index":50,"time_elapsed":469526,"internal_node_id":"0.0-19.13-0.13"},{"rate":0.41421995868609274,"trial_type":"html-keyboard-response","trial_index":51,"time_elapsed":469526,"internal_node_id":"0.0-19.13-1.13"},{"rt":null,"stimulus":"<div style=\"background-color:#6dce98\"><h1 style=\"background-color:MediumSeaGreen\" >You won a prize! Well done!</h1><div style=\"background-color:#6dce98\"><h1 style=\"background-color:MediumSeaGreen\" >Only 11 left to go!</h1><img id=\"box\" src=\"img/prizes/duck.png\"></img><img id=\"box\" src=\"img/empty/purpleopenbox.png\"></img></div>","key_press":null,"trial_type":"html-keyboard-response","trial_index":51,"time_elapsed":471034,"internal_node_id":"0.0-19.13-1.13"},{"rt":1024.8800000117626,"stimulus":"<p>Choose a box,</p>","button_pressed":0,"trial_type":"html-button-response","trial_index":52,"time_elapsed":472062,"internal_node_id":"0.0-19.14-0.14"},{"rate":0.8361843116691963,"trial_type":"html-keyboard-response","trial_index":53,"time_elapsed":472062,"internal_node_id":"0.0-19.14-1.14"},{"rt":null,"stimulus":"<div style=\"background-color:#6dce98\"><h1 style=\"background-color:MediumSeaGreen\" >You won a prize! Well done!</h1><div style=\"background-color:#6dce98\"><h1 style=\"background-color:MediumSeaGreen\" >Only 10 left to go!</h1><img id=\"box\" src=\"img/prizes/duck.png\"></img><img id=\"box\" src=\"img/empty/blueopenbox.png\"></img></div>","key_press":null,"trial_type":"html-keyboard-response","trial_index":53,"time_elapsed":473567,"internal_node_id":"0.0-19.14-1.14"},{"rt":1243.8149999943562,"stimulus":"<p>Choose a box,</p>","button_pressed":2,"trial_type":"html-button-response","trial_index":54,"time_elapsed":474815,"internal_node_id":"0.0-19.15-0.15"},{"rate":0.41421995868609274,"trial_type":"html-keyboard-response","trial_index":55,"time_elapsed":474815,"internal_node_id":"0.0-19.15-1.15"},{"rt":null,"stimulus":"<div style=\"background-color:#ff7157\"><h1 style=\"background-color:Tomato\">Bad luck! There was no prize in the box!</h1><h1 style=\"background-color:Tomato\">Remember, you need to keep going until you have 20 prizes!</h1><img id=\"box\" src=\"img/sad/purpleopenboxsadthumb.png\"></img></div>","key_press":null,"trial_type":"html-keyboard-response","trial_index":55,"time_elapsed":476321,"internal_node_id":"0.0-19.15-1.15"},{"rt":585.4200000030687,"stimulus":"<p>Choose a box,</p>","button_pressed":3,"trial_type":"html-button-response","trial_index":56,"time_elapsed":476910,"internal_node_id":"0.0-19.16-0.16"},{"rate":0.23666394737419552,"trial_type":"html-keyboard-response","trial_index":57,"time_elapsed":476910,"internal_node_id":"0.0-19.16-1.16"},{"rt":null,"stimulus":"<div style=\"background-color:#6dce98\"><h1 style=\"background-color:MediumSeaGreen\" >You won a prize! Well done!</h1><div style=\"background-color:#6dce98\"><h1 style=\"background-color:MediumSeaGreen\" >Only 9 left to go!</h1><img id=\"box\" src=\"img/prizes/duck.png\"></img><img id=\"box\" src=\"img/empty/redopenbox.png\"></img></div>","key_press":null,"trial_type":"html-keyboard-response","trial_index":57,"time_elapsed":478413,"internal_node_id":"0.0-19.16-1.16"},{"rt":932.3399999993853,"stimulus":"<p>Choose a box,</p>","button_pressed":1,"trial_type":"html-button-response","trial_index":58,"time_elapsed":479344,"internal_node_id":"0.0-19.17-0.17"},{"rate":0.5160646718022951,"trial_type":"html-keyboard-response","trial_index":59,"time_elapsed":479344,"internal_node_id":"0.0-19.17-1.17"},{"rt":null,"stimulus":"<div style=\"background-color:#6dce98\"><h1 style=\"background-color:MediumSeaGreen\" >You won a prize! Well done!</h1><div style=\"background-color:#6dce98\"><h1 style=\"background-color:MediumSeaGreen\" >Only 8 left to go!</h1><img id=\"box\" src=\"img/prizes/bear.png\"></img><img id=\"box\" src=\"img/empty/greenopenbox.png\"></img></div>","key_press":null,"trial_type":"html-keyboard-response","trial_index":59,"time_elapsed":480847,"internal_node_id":"0.0-19.17-1.17"},{"rt":868.5450000048149,"stimulus":"<p>Choose a box,</p>","button_pressed":2,"trial_type":"html-button-response","trial_index":60,"time_elapsed":481719,"internal_node_id":"0.0-19.18-0.18"},{"rate":0.41421995868609274,"trial_type":"html-keyboard-response","trial_index":61,"time_elapsed":481719,"internal_node_id":"0.0-19.18-1.18"},{"rt":null,"stimulus":"<div style=\"background-color:#ff7157\"><h1 style=\"background-color:Tomato\">Bad luck! There was no prize in the box!</h1><h1 style=\"background-color:Tomato\">Remember, you need to keep going until you have 20 prizes!</h1><img id=\"box\" src=\"img/sad/purpleopenboxsadthumb.png\"></img></div>","key_press":null,"trial_type":"html-keyboard-response","trial_index":61,"time_elapsed":483227,"internal_node_id":"0.0-19.18-1.18"},{"rt":272.87499999511056,"stimulus":"<p>Choose a box,</p>","button_pressed":0,"trial_type":"html-button-response","trial_index":62,"time_elapsed":483503,"internal_node_id":"0.0-19.19-0.19"},{"rate":0.8361843116691963,"trial_type":"html-keyboard-response","trial_index":63,"time_elapsed":483503,"internal_node_id":"0.0-19.19-1.19"},{"rt":null,"stimulus":"<div style=\"background-color:#6dce98\"><h1 style=\"background-color:MediumSeaGreen\" >You won a prize! Well done!</h1><div style=\"background-color:#6dce98\"><h1 style=\"background-color:MediumSeaGreen\" >Only 7 left to go!</h1><img id=\"box\" src=\"img/prizes/coins.png\"></img><img id=\"box\" src=\"img/empty/blueopenbox.png\"></img></div>","key_press":null,"trial_type":"html-keyboard-response","trial_index":63,"time_elapsed":485008,"internal_node_id":"0.0-19.19-1.19"},{"rt":1010.8899999904679,"stimulus":"<p>Choose a box,</p>","button_pressed":2,"trial_type":"html-button-response","trial_index":64,"time_elapsed":486023,"internal_node_id":"0.0-19.20-0.20"},{"rate":0.41421995868609274,"trial_type":"html-keyboard-response","trial_index":65,"time_elapsed":486025,"internal_node_id":"0.0-19.20-1.20"},{"rt":null,"stimulus":"<div style=\"background-color:#ff7157\"><h1 style=\"background-color:Tomato\">Bad luck! There was no prize in the box!</h1><h1 style=\"background-color:Tomato\">Remember, you need to keep going until you have 20 prizes!</h1><img id=\"box\" src=\"img/sad/purpleopenboxsadthumb.png\"></img></div>","key_press":null,"trial_type":"html-keyboard-response","trial_index":65,"time_elapsed":487541,"internal_node_id":"0.0-19.20-1.20"},{"rt":701.90499999444,"stimulus":"<p>Choose a box,</p>","button_pressed":3,"trial_type":"html-button-response","trial_index":66,"time_elapsed":488247,"internal_node_id":"0.0-19.21-0.21"},{"rate":0.23666394737419552,"trial_type":"html-keyboard-response","trial_index":67,"time_elapsed":488247,"internal_node_id":"0.0-19.21-1.21"},{"rt":null,"stimulus":"<div style=\"background-color:#ff7157\"><h1 style=\"background-color:Tomato\">Bad luck! There was no prize in the box!</h1><h1 style=\"background-color:Tomato\">Remember, you need to keep going until you have 20 prizes!</h1><img id=\"box\" src=\"img/sad/redopenboxsadthumb.png\"></img></div>","key_press":null,"trial_type":"html-keyboard-response","trial_index":67,"time_elapsed":489753,"internal_node_id":"0.0-19.21-1.21"},{"rt":1058.8800000114134,"stimulus":"<p>Choose a box,</p>","button_pressed":1,"trial_type":"html-button-response","trial_index":68,"time_elapsed":490815,"internal_node_id":"0.0-19.22-0.22"},{"rate":0.5160646718022951,"trial_type":"html-keyboard-response","trial_index":69,"time_elapsed":490815,"internal_node_id":"0.0-19.22-1.22"},{"rt":null,"stimulus":"<div style=\"background-color:#6dce98\"><h1 style=\"background-color:MediumSeaGreen\" >You won a prize! Well done!</h1><div style=\"background-color:#6dce98\"><h1 style=\"background-color:MediumSeaGreen\" >Only 6 left to go!</h1><img id=\"box\" src=\"img/prizes/lolipop.png\"></img><img id=\"box\" src=\"img/empty/greenopenbox.png\"></img></div>","key_press":null,"trial_type":"html-keyboard-response","trial_index":69,"time_elapsed":492324,"internal_node_id":"0.0-19.22-1.22"},{"rt":494.7450000036042,"stimulus":"<p>Choose a box,</p>","button_pressed":2,"trial_type":"html-button-response","trial_index":70,"time_elapsed":492823,"internal_node_id":"0.0-19.23-0.23"},{"rate":0.41421995868609274,"trial_type":"html-keyboard-response","trial_index":71,"time_elapsed":492827,"internal_node_id":"0.0-19.23-1.23"},{"rt":null,"stimulus":"<div style=\"background-color:#ff7157\"><h1 style=\"background-color:Tomato\">Bad luck! There was no prize in the box!</h1><h1 style=\"background-color:Tomato\">Remember, you need to keep going until you have 20 prizes!</h1><img id=\"box\" src=\"img/sad/purpleopenboxsadthumb.png\"></img></div>","key_press":null,"trial_type":"html-keyboard-response","trial_index":71,"time_elapsed":494331,"internal_node_id":"0.0-19.23-1.23"},{"rt":193.69999998889398,"stimulus":"<p>Choose a box,</p>","button_pressed":3,"trial_type":"html-button-response","trial_index":72,"time_elapsed":494528,"internal_node_id":"0.0-19.24-0.24"},{"rate":0.23666394737419552,"trial_type":"html-keyboard-response","trial_index":73,"time_elapsed":494528,"internal_node_id":"0.0-19.24-1.24"},{"rt":null,"stimulus":"<div style=\"background-color:#ff7157\"><h1 style=\"background-color:Tomato\">Bad luck! There was no prize in the box!</h1><h1 style=\"background-color:Tomato\">Remember, you need to keep going until you have 20 prizes!</h1><img id=\"box\" src=\"img/sad/redopenboxsadthumb.png\"></img></div>","key_press":null,"trial_type":"html-keyboard-response","trial_index":73,"time_elapsed":496041,"internal_node_id":"0.0-19.24-1.24"},{"rt":825.9650000109104,"stimulus":"<p>Choose a box,</p>","button_pressed":3,"trial_type":"html-button-response","trial_index":74,"time_elapsed":496871,"internal_node_id":"0.0-19.25-0.25"},{"rate":0.23666394737419552,"trial_type":"html-keyboard-response","trial_index":75,"time_elapsed":496871,"internal_node_id":"0.0-19.25-1.25"},{"rt":null,"stimulus":"<div style=\"background-color:#ff7157\"><h1 style=\"background-color:Tomato\">Bad luck! There was no prize in the box!</h1><h1 style=\"background-color:Tomato\">Remember, you need to keep going until you have 20 prizes!</h1><img id=\"box\" src=\"img/sad/redopenboxsadthumb.png\"></img></div>","key_press":null,"trial_type":"html-keyboard-response","trial_index":75,"time_elapsed":498377,"internal_node_id":"0.0-19.25-1.25"},{"rt":764.3099999986589,"stimulus":"<p>Choose a box,</p>","button_pressed":0,"trial_type":"html-button-response","trial_index":76,"time_elapsed":499144,"internal_node_id":"0.0-19.26-0.26"},{"rate":0.8361843116691963,"trial_type":"html-keyboard-response","trial_index":77,"time_elapsed":499144,"internal_node_id":"0.0-19.26-1.26"},{"rt":null,"stimulus":"<div style=\"background-color:#6dce98\"><h1 style=\"background-color:MediumSeaGreen\" >You won a prize! Well done!</h1><div style=\"background-color:#6dce98\"><h1 style=\"background-color:MediumSeaGreen\" >Only 5 left to go!</h1><img id=\"box\" src=\"img/prizes/beachball.png\"></img><img id=\"box\" src=\"img/empty/blueopenbox.png\"></img></div>","key_press":null,"trial_type":"html-keyboard-response","trial_index":77,"time_elapsed":500658,"internal_node_id":"0.0-19.26-1.26"},{"rt":466.44499999820255,"stimulus":"<p>Choose a box,</p>","button_pressed":2,"trial_type":"html-button-response","trial_index":78,"time_elapsed":501128,"internal_node_id":"0.0-19.27-0.27"},{"rate":0.41421995868609274,"trial_type":"html-keyboard-response","trial_index":79,"time_elapsed":501128,"internal_node_id":"0.0-19.27-1.27"},{"rt":null,"stimulus":"<div style=\"background-color:#6dce98\"><h1 style=\"background-color:MediumSeaGreen\" >You won a prize! Well done!</h1><div style=\"background-color:#6dce98\"><h1 style=\"background-color:MediumSeaGreen\" >Only 4 left to go!</h1><img id=\"box\" src=\"img/prizes/bear.png\"></img><img id=\"box\" src=\"img/empty/purpleopenbox.png\"></img></div>","key_press":null,"trial_type":"html-keyboard-response","trial_index":79,"time_elapsed":502640,"internal_node_id":"0.0-19.27-1.27"},{"rt":732.2649999987334,"stimulus":"<p>Choose a box,</p>","button_pressed":0,"trial_type":"html-button-response","trial_index":80,"time_elapsed":503376,"internal_node_id":"0.0-19.28-0.28"},{"rate":0.8361843116691963,"trial_type":"html-keyboard-response","trial_index":81,"time_elapsed":503376,"internal_node_id":"0.0-19.28-1.28"},{"rt":null,"stimulus":"<div style=\"background-color:#ff7157\"><h1 style=\"background-color:Tomato\">Bad luck! There was no prize in the box!</h1><h1 style=\"background-color:Tomato\">Remember, you need to keep going until you have 20 prizes!</h1><img id=\"box\" src=\"img/sad/blueopenboxsadthumb.png\"></img></div>","key_press":null,"trial_type":"html-keyboard-response","trial_index":81,"time_elapsed":504892,"internal_node_id":"0.0-19.28-1.28"},{"rt":607.7599999989616,"stimulus":"<p>Choose a box,</p>","button_pressed":2,"trial_type":"html-button-response","trial_index":82,"time_elapsed":505503,"internal_node_id":"0.0-19.29-0.29"},{"rate":0.41421995868609274,"trial_type":"html-keyboard-response","trial_index":83,"time_elapsed":505503,"internal_node_id":"0.0-19.29-1.29"},{"rt":null,"stimulus":"<div style=\"background-color:#ff7157\"><h1 style=\"background-color:Tomato\">Bad luck! There was no prize in the box!</h1><h1 style=\"background-color:Tomato\">Remember, you need to keep going until you have 20 prizes!</h1><img id=\"box\" src=\"img/sad/purpleopenboxsadthumb.png\"></img></div>","key_press":null,"trial_type":"html-keyboard-response","trial_index":83,"time_elapsed":507011,"internal_node_id":"0.0-19.29-1.29"},{"rt":605.7100000034552,"stimulus":"<p>Choose a box,</p>","button_pressed":1,"trial_type":"html-button-response","trial_index":84,"time_elapsed":507623,"internal_node_id":"0.0-19.30-0.30"},{"rate":0.5160646718022951,"trial_type":"html-keyboard-response","trial_index":85,"time_elapsed":507623,"internal_node_id":"0.0-19.30-1.30"},{"rt":null,"stimulus":"<div style=\"background-color:#ff7157\"><h1 style=\"background-color:Tomato\">Bad luck! There was no prize in the box!</h1><h1 style=\"background-color:Tomato\">Remember, you need to keep going until you have 20 prizes!</h1><img id=\"box\" src=\"img/sad/greenopenboxsadthumb.png\"></img></div>","key_press":null,"trial_type":"html-keyboard-response","trial_index":85,"time_elapsed":509127,"internal_node_id":"0.0-19.30-1.30"},{"rt":182.53499999991618,"stimulus":"<p>Choose a box,</p>","button_pressed":3,"trial_type":"html-button-response","trial_index":86,"time_elapsed":509312,"internal_node_id":"0.0-19.31-0.31"},{"rate":0.23666394737419552,"trial_type":"html-keyboard-response","trial_index":87,"time_elapsed":509313,"internal_node_id":"0.0-19.31-1.31"},{"rt":null,"stimulus":"<div style=\"background-color:#ff7157\"><h1 style=\"background-color:Tomato\">Bad luck! There was no prize in the box!</h1><h1 style=\"background-color:Tomato\">Remember, you need to keep going until you have 20 prizes!</h1><img id=\"box\" src=\"img/sad/redopenboxsadthumb.png\"></img></div>","key_press":null,"trial_type":"html-keyboard-response","trial_index":87,"time_elapsed":510819,"internal_node_id":"0.0-19.31-1.31"},{"rt":1105.6700000044657,"stimulus":"<p>Choose a box,</p>","button_pressed":2,"trial_type":"html-button-response","trial_index":88,"time_elapsed":511928,"internal_node_id":"0.0-19.32-0.32"},{"rate":0.41421995868609274,"trial_type":"html-keyboard-response","trial_index":89,"time_elapsed":511928,"internal_node_id":"0.0-19.32-1.32"},{"rt":null,"stimulus":"<div style=\"background-color:#ff7157\"><h1 style=\"background-color:Tomato\">Bad luck! There was no prize in the box!</h1><h1 style=\"background-color:Tomato\">Remember, you need to keep going until you have 20 prizes!</h1><img id=\"box\" src=\"img/sad/purpleopenboxsadthumb.png\"></img></div>","key_press":null,"trial_type":"html-keyboard-response","trial_index":89,"time_elapsed":513432,"internal_node_id":"0.0-19.32-1.32"},{"rt":1692.284999997355,"stimulus":"<p>Choose a box,</p>","button_pressed":1,"trial_type":"html-button-response","trial_index":90,"time_elapsed":515128,"internal_node_id":"0.0-19.33-0.33"},{"rate":0.5160646718022951,"trial_type":"html-keyboard-response","trial_index":91,"time_elapsed":515128,"internal_node_id":"0.0-19.33-1.33"},{"rt":null,"stimulus":"<div style=\"background-color:#ff7157\"><h1 style=\"background-color:Tomato\">Bad luck! There was no prize in the box!</h1><h1 style=\"background-color:Tomato\">Remember, you need to keep going until you have 20 prizes!</h1><img id=\"box\" src=\"img/sad/greenopenboxsadthumb.png\"></img></div>","key_press":null,"trial_type":"html-keyboard-response","trial_index":91,"time_elapsed":516641,"internal_node_id":"0.0-19.33-1.33"},{"rt":970.2550000074552,"stimulus":"<p>Choose a box,</p>","button_pressed":3,"trial_type":"html-button-response","trial_index":92,"time_elapsed":517615,"internal_node_id":"0.0-19.34-0.34"},{"rate":0.23666394737419552,"trial_type":"html-keyboard-response","trial_index":93,"time_elapsed":517615,"internal_node_id":"0.0-19.34-1.34"},{"rt":null,"stimulus":"<div style=\"background-color:#ff7157\"><h1 style=\"background-color:Tomato\">Bad luck! There was no prize in the box!</h1><h1 style=\"background-color:Tomato\">Remember, you need to keep going until you have 20 prizes!</h1><img id=\"box\" src=\"img/sad/redopenboxsadthumb.png\"></img></div>","key_press":null,"trial_type":"html-keyboard-response","trial_index":93,"time_elapsed":519124,"internal_node_id":"0.0-19.34-1.34"},{"rt":926.5250000025844,"stimulus":"<p>Choose a box,</p>","button_pressed":0,"trial_type":"html-button-response","trial_index":94,"time_elapsed":520055,"internal_node_id":"0.0-19.35-0.35"},{"rate":0.8361843116691963,"trial_type":"html-keyboard-response","trial_index":95,"time_elapsed":520055,"internal_node_id":"0.0-19.35-1.35"},{"rt":null,"stimulus":"<div style=\"background-color:#6dce98\"><h1 style=\"background-color:MediumSeaGreen\" >You won a prize! Well done!</h1><div style=\"background-color:#6dce98\"><h1 style=\"background-color:MediumSeaGreen\" >Only 3 left to go!</h1><img id=\"box\" src=\"img/prizes/coins.png\"></img><img id=\"box\" src=\"img/empty/blueopenbox.png\"></img></div>","key_press":null,"trial_type":"html-keyboard-response","trial_index":95,"time_elapsed":521560,"internal_node_id":"0.0-19.35-1.35"},{"rt":555.7649999973364,"stimulus":"<p>Choose a box,</p>","button_pressed":2,"trial_type":"html-button-response","trial_index":96,"time_elapsed":522119,"internal_node_id":"0.0-19.36-0.36"},{"rate":0.41421995868609274,"trial_type":"html-keyboard-response","trial_index":97,"time_elapsed":522119,"internal_node_id":"0.0-19.36-1.36"},{"rt":null,"stimulus":"<div style=\"background-color:#ff7157\"><h1 style=\"background-color:Tomato\">Bad luck! There was no prize in the box!</h1><h1 style=\"background-color:Tomato\">Remember, you need to keep going until you have 20 prizes!</h1><img id=\"box\" src=\"img/sad/purpleopenboxsadthumb.png\"></img></div>","key_press":null,"trial_type":"html-keyboard-response","trial_index":97,"time_elapsed":523627,"internal_node_id":"0.0-19.36-1.36"},{"rt":616.6850000008708,"stimulus":"<p>Choose a box,</p>","button_pressed":0,"trial_type":"html-button-response","trial_index":98,"time_elapsed":524246,"internal_node_id":"0.0-19.37-0.37"},{"rate":0.8361843116691963,"trial_type":"html-keyboard-response","trial_index":99,"time_elapsed":524247,"internal_node_id":"0.0-19.37-1.37"},{"rt":null,"stimulus":"<div style=\"background-color:#6dce98\"><h1 style=\"background-color:MediumSeaGreen\" >You won a prize! Well done!</h1><div style=\"background-color:#6dce98\"><h1 style=\"background-color:MediumSeaGreen\" >Only 2 left to go!</h1><img id=\"box\" src=\"img/prizes/beachball.png\"></img><img id=\"box\" src=\"img/empty/blueopenbox.png\"></img></div>","key_press":null,"trial_type":"html-keyboard-response","trial_index":99,"time_elapsed":525756,"internal_node_id":"0.0-19.37-1.37"},{"rt":1001.2249999999767,"stimulus":"<p>Choose a box,</p>","button_pressed":0,"trial_type":"html-button-response","trial_index":100,"time_elapsed":526762,"internal_node_id":"0.0-19.38-0.38"},{"rate":0.8361843116691963,"trial_type":"html-keyboard-response","trial_index":101,"time_elapsed":526762,"internal_node_id":"0.0-19.38-1.38"},{"rt":null,"stimulus":"<div style=\"background-color:#ff7157\"><h1 style=\"background-color:Tomato\">Bad luck! There was no prize in the box!</h1><h1 style=\"background-color:Tomato\">Remember, you need to keep going until you have 20 prizes!</h1><img id=\"box\" src=\"img/sad/blueopenboxsadthumb.png\"></img></div>","key_press":null,"trial_type":"html-keyboard-response","trial_index":101,"time_elapsed":528271,"internal_node_id":"0.0-19.38-1.38"},{"rt":637.5299999926938,"stimulus":"<p>Choose a box,</p>","button_pressed":1,"trial_type":"html-button-response","trial_index":102,"time_elapsed":528911,"internal_node_id":"0.0-19.39-0.39"},{"rate":0.5160646718022951,"trial_type":"html-keyboard-response","trial_index":103,"time_elapsed":528911,"internal_node_id":"0.0-19.39-1.39"},{"rt":null,"stimulus":"<div style=\"background-color:#6dce98\"><h1 style=\"background-color:MediumSeaGreen\" >You won a prize! Well done!</h1><div style=\"background-color:#6dce98\"><h1 style=\"background-color:MediumSeaGreen\" >Only 1 left to go!</h1><img id=\"box\" src=\"img/prizes/duck.png\"></img><img id=\"box\" src=\"img/empty/greenopenbox.png\"></img></div>","key_press":null,"trial_type":"html-keyboard-response","trial_index":103,"time_elapsed":530419,"internal_node_id":"0.0-19.39-1.39"},{"rt":921.9200000079582,"stimulus":"<p>Choose a box,</p>","button_pressed":2,"trial_type":"html-button-response","trial_index":104,"time_elapsed":531344,"internal_node_id":"0.0-19.40-0.40"},{"rate":0.41421995868609274,"trial_type":"html-keyboard-response","trial_index":105,"time_elapsed":531344,"internal_node_id":"0.0-19.40-1.40"},{"rt":null,"stimulus":"<div style=\"background-color:#ff7157\"><h1 style=\"background-color:Tomato\">Bad luck! There was no prize in the box!</h1><h1 style=\"background-color:Tomato\">Remember, you need to keep going until you have 20 prizes!</h1><img id=\"box\" src=\"img/sad/purpleopenboxsadthumb.png\"></img></div>","key_press":null,"trial_type":"html-keyboard-response","trial_index":105,"time_elapsed":532853,"internal_node_id":"0.0-19.40-1.40"},{"rt":734.7850000078324,"stimulus":"<p>Choose a box,</p>","button_pressed":1,"trial_type":"html-button-response","trial_index":106,"time_elapsed":533592,"internal_node_id":"0.0-19.41-0.41"},{"rate":0.5160646718022951,"trial_type":"html-keyboard-response","trial_index":107,"time_elapsed":533593,"internal_node_id":"0.0-19.41-1.41"},{"rt":null,"stimulus":"<div style=\"background-color:#ff7157\"><h1 style=\"background-color:Tomato\">Bad luck! There was no prize in the box!</h1><h1 style=\"background-color:Tomato\">Remember, you need to keep going until you have 20 prizes!</h1><img id=\"box\" src=\"img/sad/greenopenboxsadthumb.png\"></img></div>","key_press":null,"trial_type":"html-keyboard-response","trial_index":107,"time_elapsed":535102,"internal_node_id":"0.0-19.41-1.41"},{"rt":692.8000000043539,"stimulus":"<p>Choose a box,</p>","button_pressed":0,"trial_type":"html-button-response","trial_index":108,"time_elapsed":535799,"internal_node_id":"0.0-19.42-0.42"},{"rate":0.8361843116691963,"trial_type":"html-keyboard-response","trial_index":109,"time_elapsed":535799,"internal_node_id":"0.0-19.42-1.42"},{"rt":null,"stimulus":"<div style=\"background-color:#6dce98\"><h1 style=\"background-color:MediumSeaGreen\" >You won a prize! Well done!</h1><div style=\"background-color:#6dce98\"><h1 style=\"background-color:MediumSeaGreen\" >Only 0 left to go!</h1><img id=\"box\" src=\"img/prizes/lolipop.png\"></img><img id=\"box\" src=\"img/empty/blueopenbox.png\"></img></div>","key_press":null,"trial_type":"html-keyboard-response","trial_index":109,"time_elapsed":537307,"internal_node_id":"0.0-19.42-1.42"},{"rt":84908.71500001231,"responses":"{\"Q0\":\"interesting\",\"Q1\":\"simple selection\"}","trial_type":"survey-text","trial_index":110,"time_elapsed":622258,"internal_node_id":"0.0-20.0"}]