[{"view_history":"[{\"page_index\":0,\"viewing_time\":17911.504999967292},{\"page_index\":1,\"viewing_time\":24110.495000029914},{\"page_index\":2,\"viewing_time\":16802.87999997381},{\"page_index\":3,\"viewing_time\":25429.57000003662},{\"page_index\":4,\"viewing_time\":4390.114999958314},{\"page_index\":5,\"viewing_time\":11982.635000022128}]","rt":100628.70999996085,"trial_type":"instructions","trial_index":0,"time_elapsed":100638,"internal_node_id":"0.0-0.0"},{"rt":15124.545000027865,"responses":"{\"Q0\":\"Yes\",\"Q1\":\"Yes\",\"Q2\":\"Yes\"}","question_order":"[0,1,2]","trial_type":"survey-multi-choice","trial_index":1,"time_elapsed":115817,"internal_node_id":"0.0-1.0-0.0"},{"rt":44502.54000001587,"responses":"{\"Q0\":\"Yes\",\"Q1\":\"Yes\",\"Q2\":\"Yes\"}","question_order":"[0,1,2]","trial_type":"survey-multi-choice","trial_index":2,"time_elapsed":160327,"internal_node_id":"0.0-2.0-0.0"},{"rt":8262.92500004638,"responses":"{\"Q0\":\"5d6fd8b7cac832001862a9fe\"}","trial_type":"survey-text","trial_index":3,"time_elapsed":168603,"internal_node_id":"0.0-3.0"},{"rt":9148.260000045411,"responses":"{\"Q0\":\"Female\",\"Q1\":\"18-25\"}","question_order":"[0,1]","trial_type":"survey-multi-choice","trial_index":4,"time_elapsed":177754,"internal_node_id":"0.0-4.0"},{"rt":6378.135000006296,"responses":"{\"Q0\":\"no\"}","trial_type":"survey-text","trial_index":5,"time_elapsed":184144,"internal_node_id":"0.0-5.0"},{"view_history":"[{\"page_index\":0,\"viewing_time\":5363.114999956451}]","rt":5363.634999957867,"trial_type":"instructions","trial_index":6,"time_elapsed":189509,"internal_node_id":"0.0-6.0"},{"rt":42231.2249999959,"responses":"{\"Interested\":1,\"Distressed\":1,\"Excited\":1,\"Upset\":3}","question_order":"[0,1,2,3]","trial_type":"survey-likert","trial_index":7,"time_elapsed":231745,"internal_node_id":"0.0-7.0"},{"rt":15377.164999954402,"responses":"{\"Strong\":1,\"Guilty\":4,\"Scared\":4,\"Hostile\":4}","question_order":"[0,1,2,3]","trial_type":"survey-likert","trial_index":8,"time_elapsed":247133,"internal_node_id":"0.0-8.0"},{"rt":18511.77500002086,"responses":"{\"Enthusiastic\":0,\"Proud\":2,\"Irritable\":4,\"Alert\":4}","question_order":"[0,1,2,3]","trial_type":"survey-likert","trial_index":9,"time_elapsed":265654,"internal_node_id":"0.0-9.0"},{"rt":14138.355000060983,"responses":"{\"Ashamed\":4,\"Inspired\":1,\"Nervous\":4,\"Determined\":3}","question_order":"[0,1,2,3]","trial_type":"survey-likert","trial_index":10,"time_elapsed":279802,"internal_node_id":"0.0-10.0"},{"rt":15852.97999996692,"responses":"{\"Attentive\":2,\"Jittery\":2,\"Active\":3,\"Afraid\":4}","question_order":"[0,1,2,3]","trial_type":"survey-likert","trial_index":11,"time_elapsed":295664,"internal_node_id":"0.0-11.0"},{"rt":70662.90999995545,"responses":"{\"Q0\":1,\"Q1\":2,\"Q2\":3,\"Q3\":2}","question_order":"[0,1,2,3]","trial_type":"survey-likert","trial_index":12,"time_elapsed":366335,"internal_node_id":"0.0-12.0"},{"rt":54207.16500002891,"responses":"{\"Q0\":3,\"Q1\":3,\"Q2\":3,\"Q3\":3}","question_order":"[0,1,2,3]","trial_type":"survey-likert","trial_index":13,"time_elapsed":420554,"internal_node_id":"0.0-13.0"},{"rt":16355.890000006184,"responses":"{\"Q0\":3,\"Q1\":3,\"Q2\":3,\"Q3\":3}","question_order":"[0,1,2,3]","trial_type":"survey-likert","trial_index":14,"time_elapsed":436919,"internal_node_id":"0.0-14.0"},{"rt":14531.710000010207,"responses":"{\"Q0\":2,\"Q1\":3,\"Q2\":3}","question_order":"[0,1,2]","trial_type":"survey-likert","trial_index":15,"time_elapsed":451459,"internal_node_id":"0.0-15.0"},{"view_history":"[{\"page_index\":0,\"viewing_time\":5699.740000069141},{\"page_index\":1,\"viewing_time\":14567.964999936521},{\"page_index\":2,\"viewing_time\":11873.699999996461}]","rt":32141.965000075288,"trial_type":"instructions","trial_index":16,"time_elapsed":483615,"internal_node_id":"0.0-16.0"},{"rt":7731.875000055879,"stimulus":"<p>Choose a box,</p>","button_pressed":1,"trial_type":"html-button-response","trial_index":17,"time_elapsed":491352,"internal_node_id":"0.0-17.0-0.0"},{"rate":0.6105666980742628,"trial_type":"html-keyboard-response","trial_index":18,"time_elapsed":491352,"internal_node_id":"0.0-17.0-1.0"},{"rt":null,"stimulus":"<div style=\"background-color:#6dce98\"><h1 style=\"background-color:MediumSeaGreen\" >You won a prize! Well done!</h1><div style=\"background-color:#6dce98\"><h1 style=\"background-color:MediumSeaGreen\" >Only 19 left to go!</h1><img id=\"box\" src=\"img/prizes/coins.png\"></img><img id=\"box\" src=\"img/empty/greenopenbox.png\"></img></div>","key_press":null,"trial_type":"html-keyboard-response","trial_index":18,"time_elapsed":492860,"internal_node_id":"0.0-17.0-1.0"},{"rt":4937.239999999292,"stimulus":"<p>Choose a box,</p>","button_pressed":2,"trial_type":"html-button-response","trial_index":19,"time_elapsed":497801,"internal_node_id":"0.0-17.0-0.1"},{"rate":0.36795920587811054,"trial_type":"html-keyboard-response","trial_index":20,"time_elapsed":497801,"internal_node_id":"0.0-17.0-1.1"},{"rt":null,"stimulus":"<div style=\"background-color:#ff7157\"><h1 style=\"background-color:Tomato\">Bad luck! There was no prize in the box!</h1><h1 style=\"background-color:Tomato\">Remember, you need to keep going until you have 20 prizes!</h1><img id=\"box\" src=\"img/sad/purpleopenboxsadthumb.png\"></img></div>","key_press":null,"trial_type":"html-keyboard-response","trial_index":20,"time_elapsed":499315,"internal_node_id":"0.0-17.0-1.1"},{"rt":2842.189999995753,"stimulus":"<p>Choose a box,</p>","button_pressed":0,"trial_type":"html-button-response","trial_index":21,"time_elapsed":502160,"internal_node_id":"0.0-17.0-0.2"},{"rate":0.262637185187481,"trial_type":"html-keyboard-response","trial_index":22,"time_elapsed":502160,"internal_node_id":"0.0-17.0-1.2"},{"rt":null,"stimulus":"<div style=\"background-color:#6dce98\"><h1 style=\"background-color:MediumSeaGreen\" >You won a prize! Well done!</h1><div style=\"background-color:#6dce98\"><h1 style=\"background-color:MediumSeaGreen\" >Only 18 left to go!</h1><img id=\"box\" src=\"img/prizes/yoyo.png\"></img><img id=\"box\" src=\"img/empty/blueopenbox.png\"></img></div>","key_press":null,"trial_type":"html-keyboard-response","trial_index":22,"time_elapsed":503671,"internal_node_id":"0.0-17.0-1.2"},{"view_history":"[{\"page_index\":0,\"viewing_time\":15866.849999991246}]","rt":15867.390000028536,"trial_type":"instructions","trial_index":23,"time_elapsed":519544,"internal_node_id":"0.0-18.0"},{"rt":2936.4399999612942,"stimulus":"<p>Choose a box,</p>","button_pressed":1,"trial_type":"html-button-response","trial_index":24,"time_elapsed":522483,"internal_node_id":"0.0-19.0-0.0"},{"rate":0.3985161303249459,"trial_type":"html-keyboard-response","trial_index":25,"time_elapsed":522484,"internal_node_id":"0.0-19.0-1.0"},{"rt":null,"stimulus":"<div style=\"background-color:#ff7157\"><h1 style=\"background-color:Tomato\">Bad luck! There was no prize in the box!</h1><h1 style=\"background-color:Tomato\">Remember, you need to keep going until you have 20 prizes!</h1><img id=\"box\" src=\"img/sad/greenopenboxsadthumb.png\"></img></div>","key_press":null,"trial_type":"html-keyboard-response","trial_index":25,"time_elapsed":523997,"internal_node_id":"0.0-19.0-1.0"},{"rt":2872.1450000302866,"stimulus":"<p>Choose a box,</p>","button_pressed":3,"trial_type":"html-button-response","trial_index":26,"time_elapsed":526872,"internal_node_id":"0.0-19.1-0.1"},{"rate":0.2540181095934044,"trial_type":"html-keyboard-response","trial_index":27,"time_elapsed":526872,"internal_node_id":"0.0-19.1-1.1"},{"rt":null,"stimulus":"<div style=\"background-color:#ff7157\"><h1 style=\"background-color:Tomato\">Bad luck! There was no prize in the box!</h1><h1 style=\"background-color:Tomato\">Remember, you need to keep going until you have 20 prizes!</h1><img id=\"box\" src=\"img/sad/redopenboxsadthumb.png\"></img></div>","key_press":null,"trial_type":"html-keyboard-response","trial_index":27,"time_elapsed":528382,"internal_node_id":"0.0-19.1-1.1"},{"rt":2124.695000005886,"stimulus":"<p>Choose a box,</p>","button_pressed":2,"trial_type":"html-button-response","trial_index":28,"time_elapsed":530509,"internal_node_id":"0.0-19.2-0.2"},{"rate":0.5189226668403218,"trial_type":"html-keyboard-response","trial_index":29,"time_elapsed":530510,"internal_node_id":"0.0-19.2-1.2"},{"rt":null,"stimulus":"<div style=\"background-color:#6dce98\"><h1 style=\"background-color:MediumSeaGreen\" >You won a prize! Well done!</h1><div style=\"background-color:#6dce98\"><h1 style=\"background-color:MediumSeaGreen\" >Only 19 left to go!</h1><img id=\"box\" src=\"img/prizes/yoyo.png\"></img><img id=\"box\" src=\"img/empty/purpleopenbox.png\"></img></div>","key_press":null,"trial_type":"html-keyboard-response","trial_index":29,"time_elapsed":532023,"internal_node_id":"0.0-19.2-1.2"},{"rt":2889.604999916628,"stimulus":"<p>Choose a box,</p>","button_pressed":0,"trial_type":"html-button-response","trial_index":30,"time_elapsed":534915,"internal_node_id":"0.0-19.3-0.3"},{"rate":0.8163605479707787,"trial_type":"html-keyboard-response","trial_index":31,"time_elapsed":534915,"internal_node_id":"0.0-19.3-1.3"},{"rt":null,"stimulus":"<div style=\"background-color:#ff7157\"><h1 style=\"background-color:Tomato\">Bad luck! There was no prize in the box!</h1><h1 style=\"background-color:Tomato\">Remember, you need to keep going until you have 20 prizes!</h1><img id=\"box\" src=\"img/sad/blueopenboxsadthumb.png\"></img></div>","key_press":null,"trial_type":"html-keyboard-response","trial_index":31,"time_elapsed":536427,"internal_node_id":"0.0-19.3-1.3"},{"rt":2460.5849999934435,"stimulus":"<p>Choose a box,</p>","button_pressed":1,"trial_type":"html-button-response","trial_index":32,"time_elapsed":538890,"internal_node_id":"0.0-19.4-0.4"},{"rate":0.3985161303249459,"trial_type":"html-keyboard-response","trial_index":33,"time_elapsed":538891,"internal_node_id":"0.0-19.4-1.4"},{"rt":null,"stimulus":"<div style=\"background-color:#6dce98\"><h1 style=\"background-color:MediumSeaGreen\" >You won a prize! Well done!</h1><div style=\"background-color:#6dce98\"><h1 style=\"background-color:MediumSeaGreen\" >Only 18 left to go!</h1><img id=\"box\" src=\"img/prizes/choc.png\"></img><img id=\"box\" src=\"img/empty/greenopenbox.png\"></img></div>","key_press":null,"trial_type":"html-keyboard-response","trial_index":33,"time_elapsed":540404,"internal_node_id":"0.0-19.4-1.4"},{"rt":6387.209999957122,"stimulus":"<p>Choose a box,</p>","button_pressed":0,"trial_type":"html-button-response","trial_index":34,"time_elapsed":546793,"internal_node_id":"0.0-19.5-0.5"},{"rate":0.8163605479707787,"trial_type":"html-keyboard-response","trial_index":35,"time_elapsed":546794,"internal_node_id":"0.0-19.5-1.5"},{"rt":null,"stimulus":"<div style=\"background-color:#6dce98\"><h1 style=\"background-color:MediumSeaGreen\" >You won a prize! Well done!</h1><div style=\"background-color:#6dce98\"><h1 style=\"background-color:MediumSeaGreen\" >Only 17 left to go!</h1><img id=\"box\" src=\"img/prizes/flowers.png\"></img><img id=\"box\" src=\"img/empty/blueopenbox.png\"></img></div>","key_press":null,"trial_type":"html-keyboard-response","trial_index":35,"time_elapsed":548297,"internal_node_id":"0.0-19.5-1.5"},{"rt":5120.879999944009,"stimulus":"<p>Choose a box,</p>","button_pressed":3,"trial_type":"html-button-response","trial_index":36,"time_elapsed":553421,"internal_node_id":"0.0-19.6-0.6"},{"rate":0.2540181095934044,"trial_type":"html-keyboard-response","trial_index":37,"time_elapsed":553421,"internal_node_id":"0.0-19.6-1.6"},{"rt":null,"stimulus":"<div style=\"background-color:#ff7157\"><h1 style=\"background-color:Tomato\">Bad luck! There was no prize in the box!</h1><h1 style=\"background-color:Tomato\">Remember, you need to keep going until you have 20 prizes!</h1><img id=\"box\" src=\"img/sad/redopenboxsadthumb.png\"></img></div>","key_press":null,"trial_type":"html-keyboard-response","trial_index":37,"time_elapsed":554937,"internal_node_id":"0.0-19.6-1.6"},{"rt":8146.9550000038,"stimulus":"<p>Choose a box,</p>","button_pressed":0,"trial_type":"html-button-response","trial_index":38,"time_elapsed":563086,"internal_node_id":"0.0-19.7-0.7"},{"rate":0.8163605479707787,"trial_type":"html-keyboard-response","trial_index":39,"time_elapsed":563087,"internal_node_id":"0.0-19.7-1.7"},{"rt":null,"stimulus":"<div style=\"background-color:#6dce98\"><h1 style=\"background-color:MediumSeaGreen\" >You won a prize! Well done!</h1><div style=\"background-color:#6dce98\"><h1 style=\"background-color:MediumSeaGreen\" >Only 16 left to go!</h1><img id=\"box\" src=\"img/prizes/yoyo.png\"></img><img id=\"box\" src=\"img/empty/blueopenbox.png\"></img></div>","key_press":null,"trial_type":"html-keyboard-response","trial_index":39,"time_elapsed":564602,"internal_node_id":"0.0-19.7-1.7"},{"rt":2635.450000059791,"stimulus":"<p>Choose a box,</p>","button_pressed":3,"trial_type":"html-button-response","trial_index":40,"time_elapsed":567240,"internal_node_id":"0.0-19.8-0.8"},{"rate":0.2540181095934044,"trial_type":"html-keyboard-response","trial_index":41,"time_elapsed":567240,"internal_node_id":"0.0-19.8-1.8"},{"rt":null,"stimulus":"<div style=\"background-color:#6dce98\"><h1 style=\"background-color:MediumSeaGreen\" >You won a prize! Well done!</h1><div style=\"background-color:#6dce98\"><h1 style=\"background-color:MediumSeaGreen\" >Only 15 left to go!</h1><img id=\"box\" src=\"img/prizes/lolipop.png\"></img><img id=\"box\" src=\"img/empty/redopenbox.png\"></img></div>","key_press":null,"trial_type":"html-keyboard-response","trial_index":41,"time_elapsed":568752,"internal_node_id":"0.0-19.8-1.8"},{"rt":2493.4099999954924,"stimulus":"<p>Choose a box,</p>","button_pressed":1,"trial_type":"html-button-response","trial_index":42,"time_elapsed":571248,"internal_node_id":"0.0-19.9-0.9"},{"rate":0.3985161303249459,"trial_type":"html-keyboard-response","trial_index":43,"time_elapsed":571249,"internal_node_id":"0.0-19.9-1.9"},{"rt":null,"stimulus":"<div style=\"background-color:#6dce98\"><h1 style=\"background-color:MediumSeaGreen\" >You won a prize! Well done!</h1><div style=\"background-color:#6dce98\"><h1 style=\"background-color:MediumSeaGreen\" >Only 14 left to go!</h1><img id=\"box\" src=\"img/prizes/ring.png\"></img><img id=\"box\" src=\"img/empty/greenopenbox.png\"></img></div>","key_press":null,"trial_type":"html-keyboard-response","trial_index":43,"time_elapsed":572762,"internal_node_id":"0.0-19.9-1.9"},{"rt":7040.225000004284,"stimulus":"<p>Choose a box,</p>","button_pressed":2,"trial_type":"html-button-response","trial_index":44,"time_elapsed":579804,"internal_node_id":"0.0-19.10-0.10"},{"rate":0.5189226668403218,"trial_type":"html-keyboard-response","trial_index":45,"time_elapsed":579805,"internal_node_id":"0.0-19.10-1.10"},{"rt":null,"stimulus":"<div style=\"background-color:#ff7157\"><h1 style=\"background-color:Tomato\">Bad luck! There was no prize in the box!</h1><h1 style=\"background-color:Tomato\">Remember, you need to keep going until you have 20 prizes!</h1><img id=\"box\" src=\"img/sad/purpleopenboxsadthumb.png\"></img></div>","key_press":null,"trial_type":"html-keyboard-response","trial_index":45,"time_elapsed":581311,"internal_node_id":"0.0-19.10-1.10"},{"rt":1699.945000000298,"stimulus":"<p>Choose a box,</p>","button_pressed":3,"trial_type":"html-button-response","trial_index":46,"time_elapsed":583014,"internal_node_id":"0.0-19.11-0.11"},{"rate":0.2540181095934044,"trial_type":"html-keyboard-response","trial_index":47,"time_elapsed":583014,"internal_node_id":"0.0-19.11-1.11"},{"rt":null,"stimulus":"<div style=\"background-color:#ff7157\"><h1 style=\"background-color:Tomato\">Bad luck! There was no prize in the box!</h1><h1 style=\"background-color:Tomato\">Remember, you need to keep going until you have 20 prizes!</h1><img id=\"box\" src=\"img/sad/redopenboxsadthumb.png\"></img></div>","key_press":null,"trial_type":"html-keyboard-response","trial_index":47,"time_elapsed":584521,"internal_node_id":"0.0-19.11-1.11"},{"rt":2002.184999990277,"stimulus":"<p>Choose a box,</p>","button_pressed":1,"trial_type":"html-button-response","trial_index":48,"time_elapsed":586525,"internal_node_id":"0.0-19.12-0.12"},{"rate":0.3985161303249459,"trial_type":"html-keyboard-response","trial_index":49,"time_elapsed":586526,"internal_node_id":"0.0-19.12-1.12"},{"rt":null,"stimulus":"<div style=\"background-color:#6dce98\"><h1 style=\"background-color:MediumSeaGreen\" >You won a prize! Well done!</h1><div style=\"background-color:#6dce98\"><h1 style=\"background-color:MediumSeaGreen\" >Only 13 left to go!</h1><img id=\"box\" src=\"img/prizes/bear.png\"></img><img id=\"box\" src=\"img/empty/greenopenbox.png\"></img></div>","key_press":null,"trial_type":"html-keyboard-response","trial_index":49,"time_elapsed":588033,"internal_node_id":"0.0-19.12-1.12"},{"rt":1511.0700000077486,"stimulus":"<p>Choose a box,</p>","button_pressed":3,"trial_type":"html-button-response","trial_index":50,"time_elapsed":589547,"internal_node_id":"0.0-19.13-0.13"},{"rate":0.2540181095934044,"trial_type":"html-keyboard-response","trial_index":51,"time_elapsed":589547,"internal_node_id":"0.0-19.13-1.13"},{"rt":null,"stimulus":"<div style=\"background-color:#6dce98\"><h1 style=\"background-color:MediumSeaGreen\" >You won a prize! Well done!</h1><div style=\"background-color:#6dce98\"><h1 style=\"background-color:MediumSeaGreen\" >Only 12 left to go!</h1><img id=\"box\" src=\"img/prizes/bear.png\"></img><img id=\"box\" src=\"img/empty/redopenbox.png\"></img></div>","key_press":null,"trial_type":"html-keyboard-response","trial_index":51,"time_elapsed":591061,"internal_node_id":"0.0-19.13-1.13"},{"rt":6353.664999944158,"stimulus":"<p>Choose a box,</p>","button_pressed":0,"trial_type":"html-button-response","trial_index":52,"time_elapsed":597417,"internal_node_id":"0.0-19.14-0.14"},{"rate":0.8163605479707787,"trial_type":"html-keyboard-response","trial_index":53,"time_elapsed":597418,"internal_node_id":"0.0-19.14-1.14"},{"rt":null,"stimulus":"<div style=\"background-color:#6dce98\"><h1 style=\"background-color:MediumSeaGreen\" >You won a prize! Well done!</h1><div style=\"background-color:#6dce98\"><h1 style=\"background-color:MediumSeaGreen\" >Only 11 left to go!</h1><img id=\"box\" src=\"img/prizes/bear.png\"></img><img id=\"box\" src=\"img/empty/blueopenbox.png\"></img></div>","key_press":null,"trial_type":"html-keyboard-response","trial_index":53,"time_elapsed":598934,"internal_node_id":"0.0-19.14-1.14"},{"rt":1726.0600000154227,"stimulus":"<p>Choose a box,</p>","button_pressed":2,"trial_type":"html-button-response","trial_index":54,"time_elapsed":600662,"internal_node_id":"0.0-19.15-0.15"},{"rate":0.5189226668403218,"trial_type":"html-keyboard-response","trial_index":55,"time_elapsed":600663,"internal_node_id":"0.0-19.15-1.15"},{"rt":null,"stimulus":"<div style=\"background-color:#ff7157\"><h1 style=\"background-color:Tomato\">Bad luck! There was no prize in the box!</h1><h1 style=\"background-color:Tomato\">Remember, you need to keep going until you have 20 prizes!</h1><img id=\"box\" src=\"img/sad/purpleopenboxsadthumb.png\"></img></div>","key_press":null,"trial_type":"html-keyboard-response","trial_index":55,"time_elapsed":602178,"internal_node_id":"0.0-19.15-1.15"},{"rt":1486.284999991767,"stimulus":"<p>Choose a box,</p>","button_pressed":3,"trial_type":"html-button-response","trial_index":56,"time_elapsed":603667,"internal_node_id":"0.0-19.16-0.16"},{"rate":0.2540181095934044,"trial_type":"html-keyboard-response","trial_index":57,"time_elapsed":603667,"internal_node_id":"0.0-19.16-1.16"},{"rt":null,"stimulus":"<div style=\"background-color:#ff7157\"><h1 style=\"background-color:Tomato\">Bad luck! There was no prize in the box!</h1><h1 style=\"background-color:Tomato\">Remember, you need to keep going until you have 20 prizes!</h1><img id=\"box\" src=\"img/sad/redopenboxsadthumb.png\"></img></div>","key_press":null,"trial_type":"html-keyboard-response","trial_index":57,"time_elapsed":605182,"internal_node_id":"0.0-19.16-1.16"},{"rt":1853.084999951534,"stimulus":"<p>Choose a box,</p>","button_pressed":2,"trial_type":"html-button-response","trial_index":58,"time_elapsed":607038,"internal_node_id":"0.0-19.17-0.17"},{"rate":0.5189226668403218,"trial_type":"html-keyboard-response","trial_index":59,"time_elapsed":607038,"internal_node_id":"0.0-19.17-1.17"},{"rt":null,"stimulus":"<div style=\"background-color:#6dce98\"><h1 style=\"background-color:MediumSeaGreen\" >You won a prize! Well done!</h1><div style=\"background-color:#6dce98\"><h1 style=\"background-color:MediumSeaGreen\" >Only 10 left to go!</h1><img id=\"box\" src=\"img/prizes/flowers.png\"></img><img id=\"box\" src=\"img/empty/purpleopenbox.png\"></img></div>","key_press":null,"trial_type":"html-keyboard-response","trial_index":59,"time_elapsed":608553,"internal_node_id":"0.0-19.17-1.17"},{"rt":1806.0050000203773,"stimulus":"<p>Choose a box,</p>","button_pressed":3,"trial_type":"html-button-response","trial_index":60,"time_elapsed":610361,"internal_node_id":"0.0-19.18-0.18"},{"rate":0.2540181095934044,"trial_type":"html-keyboard-response","trial_index":61,"time_elapsed":610362,"internal_node_id":"0.0-19.18-1.18"},{"rt":null,"stimulus":"<div style=\"background-color:#ff7157\"><h1 style=\"background-color:Tomato\">Bad luck! There was no prize in the box!</h1><h1 style=\"background-color:Tomato\">Remember, you need to keep going until you have 20 prizes!</h1><img id=\"box\" src=\"img/sad/redopenboxsadthumb.png\"></img></div>","key_press":null,"trial_type":"html-keyboard-response","trial_index":61,"time_elapsed":611878,"internal_node_id":"0.0-19.18-1.18"},{"rt":1530.2199999568984,"stimulus":"<p>Choose a box,</p>","button_pressed":1,"trial_type":"html-button-response","trial_index":62,"time_elapsed":613414,"internal_node_id":"0.0-19.19-0.19"},{"rate":0.3985161303249459,"trial_type":"html-keyboard-response","trial_index":63,"time_elapsed":613414,"internal_node_id":"0.0-19.19-1.19"},{"rt":null,"stimulus":"<div style=\"background-color:#ff7157\"><h1 style=\"background-color:Tomato\">Bad luck! There was no prize in the box!</h1><h1 style=\"background-color:Tomato\">Remember, you need to keep going until you have 20 prizes!</h1><img id=\"box\" src=\"img/sad/greenopenboxsadthumb.png\"></img></div>","key_press":null,"trial_type":"html-keyboard-response","trial_index":63,"time_elapsed":614928,"internal_node_id":"0.0-19.19-1.19"},{"rt":2156.8899999838322,"stimulus":"<p>Choose a box,</p>","button_pressed":0,"trial_type":"html-button-response","trial_index":64,"time_elapsed":617087,"internal_node_id":"0.0-19.20-0.20"},{"rate":0.8163605479707787,"trial_type":"html-keyboard-response","trial_index":65,"time_elapsed":617087,"internal_node_id":"0.0-19.20-1.20"},{"rt":null,"stimulus":"<div style=\"background-color:#6dce98\"><h1 style=\"background-color:MediumSeaGreen\" >You won a prize! Well done!</h1><div style=\"background-color:#6dce98\"><h1 style=\"background-color:MediumSeaGreen\" >Only 9 left to go!</h1><img id=\"box\" src=\"img/prizes/duck.png\"></img><img id=\"box\" src=\"img/empty/blueopenbox.png\"></img></div>","key_press":null,"trial_type":"html-keyboard-response","trial_index":65,"time_elapsed":618599,"internal_node_id":"0.0-19.20-1.20"},{"rt":1900.8899999316782,"stimulus":"<p>Choose a box,</p>","button_pressed":3,"trial_type":"html-button-response","trial_index":66,"time_elapsed":620503,"internal_node_id":"0.0-19.21-0.21"},{"rate":0.2540181095934044,"trial_type":"html-keyboard-response","trial_index":67,"time_elapsed":620504,"internal_node_id":"0.0-19.21-1.21"},{"rt":null,"stimulus":"<div style=\"background-color:#ff7157\"><h1 style=\"background-color:Tomato\">Bad luck! There was no prize in the box!</h1><h1 style=\"background-color:Tomato\">Remember, you need to keep going until you have 20 prizes!</h1><img id=\"box\" src=\"img/sad/redopenboxsadthumb.png\"></img></div>","key_press":null,"trial_type":"html-keyboard-response","trial_index":67,"time_elapsed":622020,"internal_node_id":"0.0-19.21-1.21"},{"rt":2073.010000050999,"stimulus":"<p>Choose a box,</p>","button_pressed":1,"trial_type":"html-button-response","trial_index":68,"time_elapsed":624095,"internal_node_id":"0.0-19.22-0.22"},{"rate":0.3985161303249459,"trial_type":"html-keyboard-response","trial_index":69,"time_elapsed":624095,"internal_node_id":"0.0-19.22-1.22"},{"rt":null,"stimulus":"<div style=\"background-color:#ff7157\"><h1 style=\"background-color:Tomato\">Bad luck! There was no prize in the box!</h1><h1 style=\"background-color:Tomato\">Remember, you need to keep going until you have 20 prizes!</h1><img id=\"box\" src=\"img/sad/greenopenboxsadthumb.png\"></img></div>","key_press":null,"trial_type":"html-keyboard-response","trial_index":69,"time_elapsed":625609,"internal_node_id":"0.0-19.22-1.22"},{"rt":1197.4799999734387,"stimulus":"<p>Choose a box,</p>","button_pressed":2,"trial_type":"html-button-response","trial_index":70,"time_elapsed":626809,"internal_node_id":"0.0-19.23-0.23"},{"rate":0.5189226668403218,"trial_type":"html-keyboard-response","trial_index":71,"time_elapsed":626809,"internal_node_id":"0.0-19.23-1.23"},{"rt":null,"stimulus":"<div style=\"background-color:#ff7157\"><h1 style=\"background-color:Tomato\">Bad luck! There was no prize in the box!</h1><h1 style=\"background-color:Tomato\">Remember, you need to keep going until you have 20 prizes!</h1><img id=\"box\" src=\"img/sad/purpleopenboxsadthumb.png\"></img></div>","key_press":null,"trial_type":"html-keyboard-response","trial_index":71,"time_elapsed":628325,"internal_node_id":"0.0-19.23-1.23"},{"rt":1406.1450000153854,"stimulus":"<p>Choose a box,</p>","button_pressed":0,"trial_type":"html-button-response","trial_index":72,"time_elapsed":629733,"internal_node_id":"0.0-19.24-0.24"},{"rate":0.8163605479707787,"trial_type":"html-keyboard-response","trial_index":73,"time_elapsed":629734,"internal_node_id":"0.0-19.24-1.24"},{"rt":null,"stimulus":"<div style=\"background-color:#ff7157\"><h1 style=\"background-color:Tomato\">Bad luck! There was no prize in the box!</h1><h1 style=\"background-color:Tomato\">Remember, you need to keep going until you have 20 prizes!</h1><img id=\"box\" src=\"img/sad/blueopenboxsadthumb.png\"></img></div>","key_press":null,"trial_type":"html-keyboard-response","trial_index":73,"time_elapsed":631250,"internal_node_id":"0.0-19.24-1.24"},{"rt":1293.4449999593198,"stimulus":"<p>Choose a box,</p>","button_pressed":1,"trial_type":"html-button-response","trial_index":74,"time_elapsed":632546,"internal_node_id":"0.0-19.25-0.25"},{"rate":0.3985161303249459,"trial_type":"html-keyboard-response","trial_index":75,"time_elapsed":632546,"internal_node_id":"0.0-19.25-1.25"},{"rt":null,"stimulus":"<div style=\"background-color:#ff7157\"><h1 style=\"background-color:Tomato\">Bad luck! There was no prize in the box!</h1><h1 style=\"background-color:Tomato\">Remember, you need to keep going until you have 20 prizes!</h1><img id=\"box\" src=\"img/sad/greenopenboxsadthumb.png\"></img></div>","key_press":null,"trial_type":"html-keyboard-response","trial_index":75,"time_elapsed":634059,"internal_node_id":"0.0-19.25-1.25"},{"rt":1214.4000000553206,"stimulus":"<p>Choose a box,</p>","button_pressed":2,"trial_type":"html-button-response","trial_index":76,"time_elapsed":635276,"internal_node_id":"0.0-19.26-0.26"},{"rate":0.5189226668403218,"trial_type":"html-keyboard-response","trial_index":77,"time_elapsed":635276,"internal_node_id":"0.0-19.26-1.26"},{"rt":null,"stimulus":"<div style=\"background-color:#ff7157\"><h1 style=\"background-color:Tomato\">Bad luck! There was no prize in the box!</h1><h1 style=\"background-color:Tomato\">Remember, you need to keep going until you have 20 prizes!</h1><img id=\"box\" src=\"img/sad/purpleopenboxsadthumb.png\"></img></div>","key_press":null,"trial_type":"html-keyboard-response","trial_index":77,"time_elapsed":636793,"internal_node_id":"0.0-19.26-1.26"},{"rt":1162.4800000572577,"stimulus":"<p>Choose a box,</p>","button_pressed":3,"trial_type":"html-button-response","trial_index":78,"time_elapsed":637958,"internal_node_id":"0.0-19.27-0.27"},{"rate":0.2540181095934044,"trial_type":"html-keyboard-response","trial_index":79,"time_elapsed":637958,"internal_node_id":"0.0-19.27-1.27"},{"rt":null,"stimulus":"<div style=\"background-color:#ff7157\"><h1 style=\"background-color:Tomato\">Bad luck! There was no prize in the box!</h1><h1 style=\"background-color:Tomato\">Remember, you need to keep going until you have 20 prizes!</h1><img id=\"box\" src=\"img/sad/redopenboxsadthumb.png\"></img></div>","key_press":null,"trial_type":"html-keyboard-response","trial_index":79,"time_elapsed":639474,"internal_node_id":"0.0-19.27-1.27"},{"rt":1916.0400000400841,"stimulus":"<p>Choose a box,</p>","button_pressed":0,"trial_type":"html-button-response","trial_index":80,"time_elapsed":641393,"internal_node_id":"0.0-19.28-0.28"},{"rate":0.8163605479707787,"trial_type":"html-keyboard-response","trial_index":81,"time_elapsed":641393,"internal_node_id":"0.0-19.28-1.28"},{"rt":null,"stimulus":"<div style=\"background-color:#ff7157\"><h1 style=\"background-color:Tomato\">Bad luck! There was no prize in the box!</h1><h1 style=\"background-color:Tomato\">Remember, you need to keep going until you have 20 prizes!</h1><img id=\"box\" src=\"img/sad/blueopenboxsadthumb.png\"></img></div>","key_press":null,"trial_type":"html-keyboard-response","trial_index":81,"time_elapsed":642909,"internal_node_id":"0.0-19.28-1.28"},{"rt":1102.6049999054521,"stimulus":"<p>Choose a box,</p>","button_pressed":1,"trial_type":"html-button-response","trial_index":82,"time_elapsed":644014,"internal_node_id":"0.0-19.29-0.29"},{"rate":0.3985161303249459,"trial_type":"html-keyboard-response","trial_index":83,"time_elapsed":644014,"internal_node_id":"0.0-19.29-1.29"},{"rt":null,"stimulus":"<div style=\"background-color:#ff7157\"><h1 style=\"background-color:Tomato\">Bad luck! There was no prize in the box!</h1><h1 style=\"background-color:Tomato\">Remember, you need to keep going until you have 20 prizes!</h1><img id=\"box\" src=\"img/sad/greenopenboxsadthumb.png\"></img></div>","key_press":null,"trial_type":"html-keyboard-response","trial_index":83,"time_elapsed":645529,"internal_node_id":"0.0-19.29-1.29"},{"rt":1516.494999988936,"stimulus":"<p>Choose a box,</p>","button_pressed":2,"trial_type":"html-button-response","trial_index":84,"time_elapsed":647049,"internal_node_id":"0.0-19.30-0.30"},{"rate":0.5189226668403218,"trial_type":"html-keyboard-response","trial_index":85,"time_elapsed":647049,"internal_node_id":"0.0-19.30-1.30"},{"rt":null,"stimulus":"<div style=\"background-color:#6dce98\"><h1 style=\"background-color:MediumSeaGreen\" >You won a prize! Well done!</h1><div style=\"background-color:#6dce98\"><h1 style=\"background-color:MediumSeaGreen\" >Only 8 left to go!</h1><img id=\"box\" src=\"img/prizes/duck.png\"></img><img id=\"box\" src=\"img/empty/purpleopenbox.png\"></img></div>","key_press":null,"trial_type":"html-keyboard-response","trial_index":85,"time_elapsed":648564,"internal_node_id":"0.0-19.30-1.30"},{"rt":1929.9349999055266,"stimulus":"<p>Choose a box,</p>","button_pressed":3,"trial_type":"html-button-response","trial_index":86,"time_elapsed":650496,"internal_node_id":"0.0-19.31-0.31"},{"rate":0.2540181095934044,"trial_type":"html-keyboard-response","trial_index":87,"time_elapsed":650496,"internal_node_id":"0.0-19.31-1.31"},{"rt":null,"stimulus":"<div style=\"background-color:#ff7157\"><h1 style=\"background-color:Tomato\">Bad luck! There was no prize in the box!</h1><h1 style=\"background-color:Tomato\">Remember, you need to keep going until you have 20 prizes!</h1><img id=\"box\" src=\"img/sad/redopenboxsadthumb.png\"></img></div>","key_press":null,"trial_type":"html-keyboard-response","trial_index":87,"time_elapsed":652012,"internal_node_id":"0.0-19.31-1.31"},{"rt":1261.4449999528006,"stimulus":"<p>Choose a box,</p>","button_pressed":2,"trial_type":"html-button-response","trial_index":88,"time_elapsed":653276,"internal_node_id":"0.0-19.32-0.32"},{"rate":0.5189226668403218,"trial_type":"html-keyboard-response","trial_index":89,"time_elapsed":653276,"internal_node_id":"0.0-19.32-1.32"},{"rt":null,"stimulus":"<div style=\"background-color:#6dce98\"><h1 style=\"background-color:MediumSeaGreen\" >You won a prize! Well done!</h1><div style=\"background-color:#6dce98\"><h1 style=\"background-color:MediumSeaGreen\" >Only 7 left to go!</h1><img id=\"box\" src=\"img/prizes/ring.png\"></img><img id=\"box\" src=\"img/empty/purpleopenbox.png\"></img></div>","key_press":null,"trial_type":"html-keyboard-response","trial_index":89,"time_elapsed":654793,"internal_node_id":"0.0-19.32-1.32"},{"rt":2346.7599999858066,"stimulus":"<p>Choose a box,</p>","button_pressed":1,"trial_type":"html-button-response","trial_index":90,"time_elapsed":657142,"internal_node_id":"0.0-19.33-0.33"},{"rate":0.3985161303249459,"trial_type":"html-keyboard-response","trial_index":91,"time_elapsed":657142,"internal_node_id":"0.0-19.33-1.33"},{"rt":null,"stimulus":"<div style=\"background-color:#6dce98\"><h1 style=\"background-color:MediumSeaGreen\" >You won a prize! Well done!</h1><div style=\"background-color:#6dce98\"><h1 style=\"background-color:MediumSeaGreen\" >Only 6 left to go!</h1><img id=\"box\" src=\"img/prizes/flowers.png\"></img><img id=\"box\" src=\"img/empty/greenopenbox.png\"></img></div>","key_press":null,"trial_type":"html-keyboard-response","trial_index":91,"time_elapsed":658658,"internal_node_id":"0.0-19.33-1.33"},{"rt":1690.1300000026822,"stimulus":"<p>Choose a box,</p>","button_pressed":0,"trial_type":"html-button-response","trial_index":92,"time_elapsed":660351,"internal_node_id":"0.0-19.34-0.34"},{"rate":0.8163605479707787,"trial_type":"html-keyboard-response","trial_index":93,"time_elapsed":660351,"internal_node_id":"0.0-19.34-1.34"},{"rt":null,"stimulus":"<div style=\"background-color:#6dce98\"><h1 style=\"background-color:MediumSeaGreen\" >You won a prize! Well done!</h1><div style=\"background-color:#6dce98\"><h1 style=\"background-color:MediumSeaGreen\" >Only 5 left to go!</h1><img id=\"box\" src=\"img/prizes/bear.png\"></img><img id=\"box\" src=\"img/empty/blueopenbox.png\"></img></div>","key_press":null,"trial_type":"html-keyboard-response","trial_index":93,"time_elapsed":661866,"internal_node_id":"0.0-19.34-1.34"},{"rt":2043.864999897778,"stimulus":"<p>Choose a box,</p>","button_pressed":3,"trial_type":"html-button-response","trial_index":94,"time_elapsed":663913,"internal_node_id":"0.0-19.35-0.35"},{"rate":0.2540181095934044,"trial_type":"html-keyboard-response","trial_index":95,"time_elapsed":663913,"internal_node_id":"0.0-19.35-1.35"},{"rt":null,"stimulus":"<div style=\"background-color:#ff7157\"><h1 style=\"background-color:Tomato\">Bad luck! There was no prize in the box!</h1><h1 style=\"background-color:Tomato\">Remember, you need to keep going until you have 20 prizes!</h1><img id=\"box\" src=\"img/sad/redopenboxsadthumb.png\"></img></div>","key_press":null,"trial_type":"html-keyboard-response","trial_index":95,"time_elapsed":665429,"internal_node_id":"0.0-19.35-1.35"},{"rt":1054.5299999648705,"stimulus":"<p>Choose a box,</p>","button_pressed":2,"trial_type":"html-button-response","trial_index":96,"time_elapsed":666486,"internal_node_id":"0.0-19.36-0.36"},{"rate":0.5189226668403218,"trial_type":"html-keyboard-response","trial_index":97,"time_elapsed":666486,"internal_node_id":"0.0-19.36-1.36"},{"rt":null,"stimulus":"<div style=\"background-color:#ff7157\"><h1 style=\"background-color:Tomato\">Bad luck! There was no prize in the box!</h1><h1 style=\"background-color:Tomato\">Remember, you need to keep going until you have 20 prizes!</h1><img id=\"box\" src=\"img/sad/purpleopenboxsadthumb.png\"></img></div>","key_press":null,"trial_type":"html-keyboard-response","trial_index":97,"time_elapsed":667998,"internal_node_id":"0.0-19.36-1.36"},{"rt":1019.6399999549612,"stimulus":"<p>Choose a box,</p>","button_pressed":3,"trial_type":"html-button-response","trial_index":98,"time_elapsed":669021,"internal_node_id":"0.0-19.37-0.37"},{"rate":0.2540181095934044,"trial_type":"html-keyboard-response","trial_index":99,"time_elapsed":669021,"internal_node_id":"0.0-19.37-1.37"},{"rt":null,"stimulus":"<div style=\"background-color:#ff7157\"><h1 style=\"background-color:Tomato\">Bad luck! There was no prize in the box!</h1><h1 style=\"background-color:Tomato\">Remember, you need to keep going until you have 20 prizes!</h1><img id=\"box\" src=\"img/sad/redopenboxsadthumb.png\"></img></div>","key_press":null,"trial_type":"html-keyboard-response","trial_index":99,"time_elapsed":670524,"internal_node_id":"0.0-19.37-1.37"},{"rt":1255.6900000199676,"stimulus":"<p>Choose a box,</p>","button_pressed":0,"trial_type":"html-button-response","trial_index":100,"time_elapsed":671782,"internal_node_id":"0.0-19.38-0.38"},{"rate":0.8163605479707787,"trial_type":"html-keyboard-response","trial_index":101,"time_elapsed":671783,"internal_node_id":"0.0-19.38-1.38"},{"rt":null,"stimulus":"<div style=\"background-color:#6dce98\"><h1 style=\"background-color:MediumSeaGreen\" >You won a prize! Well done!</h1><div style=\"background-color:#6dce98\"><h1 style=\"background-color:MediumSeaGreen\" >Only 4 left to go!</h1><img id=\"box\" src=\"img/prizes/lolipop.png\"></img><img id=\"box\" src=\"img/empty/blueopenbox.png\"></img></div>","key_press":null,"trial_type":"html-keyboard-response","trial_index":101,"time_elapsed":673298,"internal_node_id":"0.0-19.38-1.38"},{"rt":1608.9299999875948,"stimulus":"<p>Choose a box,</p>","button_pressed":1,"trial_type":"html-button-response","trial_index":102,"time_elapsed":674910,"internal_node_id":"0.0-19.39-0.39"},{"rate":0.3985161303249459,"trial_type":"html-keyboard-response","trial_index":103,"time_elapsed":674910,"internal_node_id":"0.0-19.39-1.39"},{"rt":null,"stimulus":"<div style=\"background-color:#ff7157\"><h1 style=\"background-color:Tomato\">Bad luck! There was no prize in the box!</h1><h1 style=\"background-color:Tomato\">Remember, you need to keep going until you have 20 prizes!</h1><img id=\"box\" src=\"img/sad/greenopenboxsadthumb.png\"></img></div>","key_press":null,"trial_type":"html-keyboard-response","trial_index":103,"time_elapsed":676426,"internal_node_id":"0.0-19.39-1.39"},{"rt":1547.6450000423938,"stimulus":"<p>Choose a box,</p>","button_pressed":0,"trial_type":"html-button-response","trial_index":104,"time_elapsed":677976,"internal_node_id":"0.0-19.40-0.40"},{"rate":0.8163605479707787,"trial_type":"html-keyboard-response","trial_index":105,"time_elapsed":677977,"internal_node_id":"0.0-19.40-1.40"},{"rt":null,"stimulus":"<div style=\"background-color:#ff7157\"><h1 style=\"background-color:Tomato\">Bad luck! There was no prize in the box!</h1><h1 style=\"background-color:Tomato\">Remember, you need to keep going until you have 20 prizes!</h1><img id=\"box\" src=\"img/sad/blueopenboxsadthumb.png\"></img></div>","key_press":null,"trial_type":"html-keyboard-response","trial_index":105,"time_elapsed":679480,"internal_node_id":"0.0-19.40-1.40"},{"rt":1096.5099999448285,"stimulus":"<p>Choose a box,</p>","button_pressed":2,"trial_type":"html-button-response","trial_index":106,"time_elapsed":680579,"internal_node_id":"0.0-19.41-0.41"},{"rate":0.5189226668403218,"trial_type":"html-keyboard-response","trial_index":107,"time_elapsed":680579,"internal_node_id":"0.0-19.41-1.41"},{"rt":null,"stimulus":"<div style=\"background-color:#ff7157\"><h1 style=\"background-color:Tomato\">Bad luck! There was no prize in the box!</h1><h1 style=\"background-color:Tomato\">Remember, you need to keep going until you have 20 prizes!</h1><img id=\"box\" src=\"img/sad/purpleopenboxsadthumb.png\"></img></div>","key_press":null,"trial_type":"html-keyboard-response","trial_index":107,"time_elapsed":682093,"internal_node_id":"0.0-19.41-1.41"},{"rt":1005.4999999701977,"stimulus":"<p>Choose a box,</p>","button_pressed":1,"trial_type":"html-button-response","trial_index":108,"time_elapsed":683102,"internal_node_id":"0.0-19.42-0.42"},{"rate":0.3985161303249459,"trial_type":"html-keyboard-response","trial_index":109,"time_elapsed":683103,"internal_node_id":"0.0-19.42-1.42"},{"rt":null,"stimulus":"<div style=\"background-color:#ff7157\"><h1 style=\"background-color:Tomato\">Bad luck! There was no prize in the box!</h1><h1 style=\"background-color:Tomato\">Remember, you need to keep going until you have 20 prizes!</h1><img id=\"box\" src=\"img/sad/greenopenboxsadthumb.png\"></img></div>","key_press":null,"trial_type":"html-keyboard-response","trial_index":109,"time_elapsed":684616,"internal_node_id":"0.0-19.42-1.42"},{"rt":1069.0799999283627,"stimulus":"<p>Choose a box,</p>","button_pressed":3,"trial_type":"html-button-response","trial_index":110,"time_elapsed":685689,"internal_node_id":"0.0-19.43-0.43"},{"rate":0.2540181095934044,"trial_type":"html-keyboard-response","trial_index":111,"time_elapsed":685690,"internal_node_id":"0.0-19.43-1.43"},{"rt":null,"stimulus":"<div style=\"background-color:#6dce98\"><h1 style=\"background-color:MediumSeaGreen\" >You won a prize! Well done!</h1><div style=\"background-color:#6dce98\"><h1 style=\"background-color:MediumSeaGreen\" >Only 3 left to go!</h1><img id=\"box\" src=\"img/prizes/bear.png\"></img><img id=\"box\" src=\"img/empty/redopenbox.png\"></img></div>","key_press":null,"trial_type":"html-keyboard-response","trial_index":111,"time_elapsed":687205,"internal_node_id":"0.0-19.43-1.43"},{"rt":1470.2850000467151,"stimulus":"<p>Choose a box,</p>","button_pressed":0,"trial_type":"html-button-response","trial_index":112,"time_elapsed":688678,"internal_node_id":"0.0-19.44-0.44"},{"rate":0.8163605479707787,"trial_type":"html-keyboard-response","trial_index":113,"time_elapsed":688678,"internal_node_id":"0.0-19.44-1.44"},{"rt":null,"stimulus":"<div style=\"background-color:#6dce98\"><h1 style=\"background-color:MediumSeaGreen\" >You won a prize! Well done!</h1><div style=\"background-color:#6dce98\"><h1 style=\"background-color:MediumSeaGreen\" >Only 2 left to go!</h1><img id=\"box\" src=\"img/prizes/duck.png\"></img><img id=\"box\" src=\"img/empty/blueopenbox.png\"></img></div>","key_press":null,"trial_type":"html-keyboard-response","trial_index":113,"time_elapsed":690192,"internal_node_id":"0.0-19.44-1.44"},{"rt":1198.4149999916553,"stimulus":"<p>Choose a box,</p>","button_pressed":1,"trial_type":"html-button-response","trial_index":114,"time_elapsed":691393,"internal_node_id":"0.0-19.45-0.45"},{"rate":0.3985161303249459,"trial_type":"html-keyboard-response","trial_index":115,"time_elapsed":691393,"internal_node_id":"0.0-19.45-1.45"},{"rt":null,"stimulus":"<div style=\"background-color:#6dce98\"><h1 style=\"background-color:MediumSeaGreen\" >You won a prize! Well done!</h1><div style=\"background-color:#6dce98\"><h1 style=\"background-color:MediumSeaGreen\" >Only 1 left to go!</h1><img id=\"box\" src=\"img/prizes/yoyo.png\"></img><img id=\"box\" src=\"img/empty/greenopenbox.png\"></img></div>","key_press":null,"trial_type":"html-keyboard-response","trial_index":115,"time_elapsed":692909,"internal_node_id":"0.0-19.45-1.45"},{"rt":2125.8399999933317,"stimulus":"<p>Choose a box,</p>","button_pressed":2,"trial_type":"html-button-response","trial_index":116,"time_elapsed":695037,"internal_node_id":"0.0-19.46-0.46"},{"rate":0.5189226668403218,"trial_type":"html-keyboard-response","trial_index":117,"time_elapsed":695037,"internal_node_id":"0.0-19.46-1.46"},{"rt":null,"stimulus":"<div style=\"background-color:#ff7157\"><h1 style=\"background-color:Tomato\">Bad luck! There was no prize in the box!</h1><h1 style=\"background-color:Tomato\">Remember, you need to keep going until you have 20 prizes!</h1><img id=\"box\" src=\"img/sad/purpleopenboxsadthumb.png\"></img></div>","key_press":null,"trial_type":"html-keyboard-response","trial_index":117,"time_elapsed":696552,"internal_node_id":"0.0-19.46-1.46"},{"rt":1133.5350000299513,"stimulus":"<p>Choose a box,</p>","button_pressed":3,"trial_type":"html-button-response","trial_index":118,"time_elapsed":697688,"internal_node_id":"0.0-19.47-0.47"},{"rate":0.2540181095934044,"trial_type":"html-keyboard-response","trial_index":119,"time_elapsed":697689,"internal_node_id":"0.0-19.47-1.47"},{"rt":null,"stimulus":"<div style=\"background-color:#ff7157\"><h1 style=\"background-color:Tomato\">Bad luck! There was no prize in the box!</h1><h1 style=\"background-color:Tomato\">Remember, you need to keep going until you have 20 prizes!</h1><img id=\"box\" src=\"img/sad/redopenboxsadthumb.png\"></img></div>","key_press":null,"trial_type":"html-keyboard-response","trial_index":119,"time_elapsed":699191,"internal_node_id":"0.0-19.47-1.47"},{"rt":1002.8300000121817,"stimulus":"<p>Choose a box,</p>","button_pressed":1,"trial_type":"html-button-response","trial_index":120,"time_elapsed":700196,"internal_node_id":"0.0-19.48-0.48"},{"rate":0.3985161303249459,"trial_type":"html-keyboard-response","trial_index":121,"time_elapsed":700196,"internal_node_id":"0.0-19.48-1.48"},{"rt":null,"stimulus":"<div style=\"background-color:#ff7157\"><h1 style=\"background-color:Tomato\">Bad luck! There was no prize in the box!</h1><h1 style=\"background-color:Tomato\">Remember, you need to keep going until you have 20 prizes!</h1><img id=\"box\" src=\"img/sad/greenopenboxsadthumb.png\"></img></div>","key_press":null,"trial_type":"html-keyboard-response","trial_index":121,"time_elapsed":701698,"internal_node_id":"0.0-19.48-1.48"},{"rt":795.8749999525025,"stimulus":"<p>Choose a box,</p>","button_pressed":0,"trial_type":"html-button-response","trial_index":122,"time_elapsed":702496,"internal_node_id":"0.0-19.49-0.49"},{"rate":0.8163605479707787,"trial_type":"html-keyboard-response","trial_index":123,"time_elapsed":702496,"internal_node_id":"0.0-19.49-1.49"},{"rt":null,"stimulus":"<div style=\"background-color:#6dce98\"><h1 style=\"background-color:MediumSeaGreen\" >You won a prize! Well done!</h1><div style=\"background-color:#6dce98\"><h1 style=\"background-color:MediumSeaGreen\" >Only 0 left to go!</h1><img id=\"box\" src=\"img/prizes/lolipop.png\"></img><img id=\"box\" src=\"img/empty/blueopenbox.png\"></img></div>","key_press":null,"trial_type":"html-keyboard-response","trial_index":123,"time_elapsed":704013,"internal_node_id":"0.0-19.49-1.49"},{"rt":40620.95499993302,"responses":"{\"Q0\":\"was funny\",\"Q1\":\"if was empty once then it will have a point\"}","trial_type":"survey-text","trial_index":124,"time_elapsed":744649,"internal_node_id":"0.0-20.0"}]