[{"view_history":"[{\"page_index\":0,\"viewing_time\":28670.92999999977},{\"page_index\":1,\"viewing_time\":43559.69000000005},{\"page_index\":2,\"viewing_time\":56439.91000000005},{\"page_index\":3,\"viewing_time\":15767.929999999978},{\"page_index\":4,\"viewing_time\":19002.21000000011},{\"page_index\":5,\"viewing_time\":3653.824999999866}]","rt":167095.82,"trial_type":"instructions","trial_index":0,"time_elapsed":167100,"internal_node_id":"0.0-0.0"},{"rt":27380.764999999898,"responses":"{\"Q0\":\"Yes\",\"Q1\":\"Yes\",\"Q2\":\"Yes\"}","question_order":"[0,1,2]","trial_type":"survey-multi-choice","trial_index":1,"time_elapsed":194483,"internal_node_id":"0.0-1.0-0.0"},{"rt":33548.61000000028,"responses":"{\"Q0\":\"Yes\",\"Q1\":\"Yes\",\"Q2\":\"Yes\"}","question_order":"[0,1,2]","trial_type":"survey-multi-choice","trial_index":2,"time_elapsed":228036,"internal_node_id":"0.0-2.0-0.0"},{"rt":5997.240000000136,"responses":"{\"Q0\":\"5f5b9846033f642ff6884099\"}","trial_type":"survey-text","trial_index":3,"time_elapsed":234041,"internal_node_id":"0.0-3.0"},{"rt":4776.3049999998475,"responses":"{\"Q0\":\"Male\",\"Q1\":\"18-25\"}","question_order":"[0,1]","trial_type":"survey-multi-choice","trial_index":4,"time_elapsed":238819,"internal_node_id":"0.0-4.0"},{"rt":14379.414999999863,"responses":"{\"Q0\":\"\"}","trial_type":"survey-text","trial_index":5,"time_elapsed":253203,"internal_node_id":"0.0-5.0"},{"view_history":"[{\"page_index\":0,\"viewing_time\":24398.499999999796}]","rt":24400.345,"trial_type":"instructions","trial_index":6,"time_elapsed":277605,"internal_node_id":"0.0-6.0"},{"rt":56228.669999999925,"responses":"{\"Interested\":1,\"Distressed\":0,\"Excited\":0,\"Upset\":3}","question_order":"[0,1,2,3]","trial_type":"survey-likert","trial_index":7,"time_elapsed":333836,"internal_node_id":"0.0-7.0"},{"rt":69452.63000000024,"responses":"{\"Strong\":1,\"Guilty\":0,\"Scared\":0,\"Hostile\":3}","question_order":"[0,1,2,3]","trial_type":"survey-likert","trial_index":8,"time_elapsed":403292,"internal_node_id":"0.0-8.0"},{"rt":31237.505000000063,"responses":"{\"Enthusiastic\":0,\"Proud\":0,\"Irritable\":3,\"Alert\":1}","question_order":"[0,1,2,3]","trial_type":"survey-likert","trial_index":9,"time_elapsed":434533,"internal_node_id":"0.0-9.0"},{"rt":21276.829999999783,"responses":"{\"Ashamed\":0,\"Inspired\":1,\"Nervous\":4,\"Determined\":0}","question_order":"[0,1,2,3]","trial_type":"survey-likert","trial_index":10,"time_elapsed":455813,"internal_node_id":"0.0-10.0"},{"rt":48539.28500000032,"responses":"{\"Attentive\":3,\"Jittery\":0,\"Active\":3,\"Afraid\":0}","question_order":"[0,1,2,3]","trial_type":"survey-likert","trial_index":11,"time_elapsed":504355,"internal_node_id":"0.0-11.0"},{"rt":48725.280000000144,"responses":"{\"Q0\":1,\"Q1\":2,\"Q2\":3,\"Q3\":2}","question_order":"[0,1,2,3]","trial_type":"survey-likert","trial_index":12,"time_elapsed":553084,"internal_node_id":"0.0-12.0"},{"rt":52749.52499999979,"responses":"{\"Q0\":2,\"Q1\":0,\"Q2\":0,\"Q3\":0}","question_order":"[0,1,2,3]","trial_type":"survey-likert","trial_index":13,"time_elapsed":605836,"internal_node_id":"0.0-13.0"},{"rt":67915.31500000018,"responses":"{\"Q0\":2,\"Q1\":0,\"Q2\":0,\"Q3\":0}","question_order":"[0,1,2,3]","trial_type":"survey-likert","trial_index":14,"time_elapsed":673755,"internal_node_id":"0.0-14.0"},{"rt":29909.60499999975,"responses":"{\"Q0\":0,\"Q1\":2,\"Q2\":1}","question_order":"[0,1,2]","trial_type":"survey-likert","trial_index":15,"time_elapsed":703667,"internal_node_id":"0.0-15.0"},{"view_history":"[{\"page_index\":0,\"viewing_time\":79929.40000000002},{\"page_index\":1,\"viewing_time\":22783.764999999665},{\"page_index\":2,\"viewing_time\":13352.46000000008}]","rt":116066.75499999977,"trial_type":"instructions","trial_index":16,"time_elapsed":819739,"internal_node_id":"0.0-16.0"},{"rt":2684.7199999997392,"stimulus":"<p>Choose a box,</p>","button_pressed":2,"trial_type":"html-button-response","trial_index":17,"time_elapsed":822426,"internal_node_id":"0.0-17.0-0.0"},{"rate":0.7624440517717899,"trial_type":"html-keyboard-response","trial_index":18,"time_elapsed":822427,"internal_node_id":"0.0-17.0-1.0"},{"rt":null,"stimulus":"<div style=\"background-color:#6dce98\"><h1 style=\"background-color:MediumSeaGreen\" >You won a prize! Well done!</h1><div style=\"background-color:#6dce98\"><h1 style=\"background-color:MediumSeaGreen\" >Only 19 left to go!</h1><img id=\"box\" src=\"img/prizes/flowers.png\"></img><img id=\"box\" src=\"img/empty/purpleopenbox.png\"></img></div>","key_press":null,"trial_type":"html-keyboard-response","trial_index":18,"time_elapsed":823942,"internal_node_id":"0.0-17.0-1.0"},{"rt":5377.704999999842,"stimulus":"<p>Choose a box,</p>","button_pressed":2,"trial_type":"html-button-response","trial_index":19,"time_elapsed":829322,"internal_node_id":"0.0-17.0-0.1"},{"rate":0.7624440517717899,"trial_type":"html-keyboard-response","trial_index":20,"time_elapsed":829323,"internal_node_id":"0.0-17.0-1.1"},{"rt":null,"stimulus":"<div style=\"background-color:#6dce98\"><h1 style=\"background-color:MediumSeaGreen\" >You won a prize! Well done!</h1><div style=\"background-color:#6dce98\"><h1 style=\"background-color:MediumSeaGreen\" >Only 18 left to go!</h1><img id=\"box\" src=\"img/prizes/lolipop.png\"></img><img id=\"box\" src=\"img/empty/purpleopenbox.png\"></img></div>","key_press":null,"trial_type":"html-keyboard-response","trial_index":20,"time_elapsed":830825,"internal_node_id":"0.0-17.0-1.1"},{"rt":2743.58499999973,"stimulus":"<p>Choose a box,</p>","button_pressed":0,"trial_type":"html-button-response","trial_index":21,"time_elapsed":833570,"internal_node_id":"0.0-17.0-0.2"},{"rate":0.5141640892394786,"trial_type":"html-keyboard-response","trial_index":22,"time_elapsed":833571,"internal_node_id":"0.0-17.0-1.2"},{"rt":null,"stimulus":"<div style=\"background-color:#6dce98\"><h1 style=\"background-color:MediumSeaGreen\" >You won a prize! Well done!</h1><div style=\"background-color:#6dce98\"><h1 style=\"background-color:MediumSeaGreen\" >Only 17 left to go!</h1><img id=\"box\" src=\"img/prizes/flowers.png\"></img><img id=\"box\" src=\"img/empty/blueopenbox.png\"></img></div>","key_press":null,"trial_type":"html-keyboard-response","trial_index":22,"time_elapsed":835073,"internal_node_id":"0.0-17.0-1.2"},{"view_history":"[{\"page_index\":0,\"viewing_time\":18716.155000000144}]","rt":18716.690000000293,"trial_type":"instructions","trial_index":23,"time_elapsed":853794,"internal_node_id":"0.0-18.0"},{"rt":14141.94000000041,"stimulus":"<p>Choose a box,</p>","button_pressed":1,"trial_type":"html-button-response","trial_index":24,"time_elapsed":867938,"internal_node_id":"0.0-19.0-0.0"},{"rate":0.1607330751001126,"trial_type":"html-keyboard-response","trial_index":25,"time_elapsed":867938,"internal_node_id":"0.0-19.0-1.0"},{"rt":null,"stimulus":"<div style=\"background-color:#ff7157\"><h1 style=\"background-color:Tomato\">Bad luck! There was no prize in the box!</h1><h1 style=\"background-color:Tomato\">Remember, you need to keep going until you have 20 prizes!</h1><img id=\"box\" src=\"img/sad/greenopenboxsadthumb.png\"></img></div>","key_press":null,"trial_type":"html-keyboard-response","trial_index":25,"time_elapsed":869448,"internal_node_id":"0.0-19.0-1.0"},{"rt":2871.849999999511,"stimulus":"<p>Choose a box,</p>","button_pressed":2,"trial_type":"html-button-response","trial_index":26,"time_elapsed":872322,"internal_node_id":"0.0-19.1-0.1"},{"rate":0.886900488842138,"trial_type":"html-keyboard-response","trial_index":27,"time_elapsed":872323,"internal_node_id":"0.0-19.1-1.1"},{"rt":null,"stimulus":"<div style=\"background-color:#6dce98\"><h1 style=\"background-color:MediumSeaGreen\" >You won a prize! Well done!</h1><div style=\"background-color:#6dce98\"><h1 style=\"background-color:MediumSeaGreen\" >Only 19 left to go!</h1><img id=\"box\" src=\"img/prizes/choc.png\"></img><img id=\"box\" src=\"img/empty/purpleopenbox.png\"></img></div>","key_press":null,"trial_type":"html-keyboard-response","trial_index":27,"time_elapsed":873825,"internal_node_id":"0.0-19.1-1.1"},{"rt":3623.4050000002608,"stimulus":"<p>Choose a box,</p>","button_pressed":0,"trial_type":"html-button-response","trial_index":28,"time_elapsed":877450,"internal_node_id":"0.0-19.2-0.2"},{"rate":0.29461832191225523,"trial_type":"html-keyboard-response","trial_index":29,"time_elapsed":877450,"internal_node_id":"0.0-19.2-1.2"},{"rt":null,"stimulus":"<div style=\"background-color:#6dce98\"><h1 style=\"background-color:MediumSeaGreen\" >You won a prize! Well done!</h1><div style=\"background-color:#6dce98\"><h1 style=\"background-color:MediumSeaGreen\" >Only 18 left to go!</h1><img id=\"box\" src=\"img/prizes/duck.png\"></img><img id=\"box\" src=\"img/empty/blueopenbox.png\"></img></div>","key_press":null,"trial_type":"html-keyboard-response","trial_index":29,"time_elapsed":878966,"internal_node_id":"0.0-19.2-1.2"},{"rt":6953.569999999716,"stimulus":"<p>Choose a box,</p>","button_pressed":3,"trial_type":"html-button-response","trial_index":30,"time_elapsed":885922,"internal_node_id":"0.0-19.3-0.3"},{"rate":0.7371176046657636,"trial_type":"html-keyboard-response","trial_index":31,"time_elapsed":885922,"internal_node_id":"0.0-19.3-1.3"},{"rt":null,"stimulus":"<div style=\"background-color:#6dce98\"><h1 style=\"background-color:MediumSeaGreen\" >You won a prize! Well done!</h1><div style=\"background-color:#6dce98\"><h1 style=\"background-color:MediumSeaGreen\" >Only 17 left to go!</h1><img id=\"box\" src=\"img/prizes/ring.png\"></img><img id=\"box\" src=\"img/empty/redopenbox.png\"></img></div>","key_press":null,"trial_type":"html-keyboard-response","trial_index":31,"time_elapsed":887423,"internal_node_id":"0.0-19.3-1.3"},{"rt":2023.930000000284,"stimulus":"<p>Choose a box,</p>","button_pressed":2,"trial_type":"html-button-response","trial_index":32,"time_elapsed":889450,"internal_node_id":"0.0-19.4-0.4"},{"rate":0.886900488842138,"trial_type":"html-keyboard-response","trial_index":33,"time_elapsed":889450,"internal_node_id":"0.0-19.4-1.4"},{"rt":null,"stimulus":"<div style=\"background-color:#6dce98\"><h1 style=\"background-color:MediumSeaGreen\" >You won a prize! Well done!</h1><div style=\"background-color:#6dce98\"><h1 style=\"background-color:MediumSeaGreen\" >Only 16 left to go!</h1><img id=\"box\" src=\"img/prizes/choc.png\"></img><img id=\"box\" src=\"img/empty/purpleopenbox.png\"></img></div>","key_press":null,"trial_type":"html-keyboard-response","trial_index":33,"time_elapsed":890954,"internal_node_id":"0.0-19.4-1.4"},{"rt":7837.499999999651,"stimulus":"<p>Choose a box,</p>","button_pressed":0,"trial_type":"html-button-response","trial_index":34,"time_elapsed":898794,"internal_node_id":"0.0-19.5-0.5"},{"rate":0.29461832191225523,"trial_type":"html-keyboard-response","trial_index":35,"time_elapsed":898794,"internal_node_id":"0.0-19.5-1.5"},{"rt":null,"stimulus":"<div style=\"background-color:#ff7157\"><h1 style=\"background-color:Tomato\">Bad luck! There was no prize in the box!</h1><h1 style=\"background-color:Tomato\">Remember, you need to keep going until you have 20 prizes!</h1><img id=\"box\" src=\"img/sad/blueopenboxsadthumb.png\"></img></div>","key_press":null,"trial_type":"html-keyboard-response","trial_index":35,"time_elapsed":900308,"internal_node_id":"0.0-19.5-1.5"},{"rt":4588.3400000002,"stimulus":"<p>Choose a box,</p>","button_pressed":3,"trial_type":"html-button-response","trial_index":36,"time_elapsed":904898,"internal_node_id":"0.0-19.6-0.6"},{"rate":0.7371176046657636,"trial_type":"html-keyboard-response","trial_index":37,"time_elapsed":904898,"internal_node_id":"0.0-19.6-1.6"},{"rt":null,"stimulus":"<div style=\"background-color:#ff7157\"><h1 style=\"background-color:Tomato\">Bad luck! There was no prize in the box!</h1><h1 style=\"background-color:Tomato\">Remember, you need to keep going until you have 20 prizes!</h1><img id=\"box\" src=\"img/sad/redopenboxsadthumb.png\"></img></div>","key_press":null,"trial_type":"html-keyboard-response","trial_index":37,"time_elapsed":906401,"internal_node_id":"0.0-19.6-1.6"},{"rt":3185.2950000001583,"stimulus":"<p>Choose a box,</p>","button_pressed":0,"trial_type":"html-button-response","trial_index":38,"time_elapsed":909588,"internal_node_id":"0.0-19.7-0.7"},{"rate":0.29461832191225523,"trial_type":"html-keyboard-response","trial_index":39,"time_elapsed":909588,"internal_node_id":"0.0-19.7-1.7"},{"rt":null,"stimulus":"<div style=\"background-color:#ff7157\"><h1 style=\"background-color:Tomato\">Bad luck! There was no prize in the box!</h1><h1 style=\"background-color:Tomato\">Remember, you need to keep going until you have 20 prizes!</h1><img id=\"box\" src=\"img/sad/blueopenboxsadthumb.png\"></img></div>","key_press":null,"trial_type":"html-keyboard-response","trial_index":39,"time_elapsed":911094,"internal_node_id":"0.0-19.7-1.7"},{"rt":1033.95999999973,"stimulus":"<p>Choose a box,</p>","button_pressed":1,"trial_type":"html-button-response","trial_index":40,"time_elapsed":912130,"internal_node_id":"0.0-19.8-0.8"},{"rate":0.1607330751001126,"trial_type":"html-keyboard-response","trial_index":41,"time_elapsed":912130,"internal_node_id":"0.0-19.8-1.8"},{"rt":null,"stimulus":"<div style=\"background-color:#ff7157\"><h1 style=\"background-color:Tomato\">Bad luck! There was no prize in the box!</h1><h1 style=\"background-color:Tomato\">Remember, you need to keep going until you have 20 prizes!</h1><img id=\"box\" src=\"img/sad/greenopenboxsadthumb.png\"></img></div>","key_press":null,"trial_type":"html-keyboard-response","trial_index":41,"time_elapsed":913639,"internal_node_id":"0.0-19.8-1.8"},{"rt":649.644999999553,"stimulus":"<p>Choose a box,</p>","button_pressed":1,"trial_type":"html-button-response","trial_index":42,"time_elapsed":914290,"internal_node_id":"0.0-19.9-0.9"},{"rate":0.1607330751001126,"trial_type":"html-keyboard-response","trial_index":43,"time_elapsed":914291,"internal_node_id":"0.0-19.9-1.9"},{"rt":null,"stimulus":"<div style=\"background-color:#ff7157\"><h1 style=\"background-color:Tomato\">Bad luck! There was no prize in the box!</h1><h1 style=\"background-color:Tomato\">Remember, you need to keep going until you have 20 prizes!</h1><img id=\"box\" src=\"img/sad/greenopenboxsadthumb.png\"></img></div>","key_press":null,"trial_type":"html-keyboard-response","trial_index":43,"time_elapsed":915792,"internal_node_id":"0.0-19.9-1.9"},{"rt":471.8149999998277,"stimulus":"<p>Choose a box,</p>","button_pressed":1,"trial_type":"html-button-response","trial_index":44,"time_elapsed":916266,"internal_node_id":"0.0-19.10-0.10"},{"rate":0.1607330751001126,"trial_type":"html-keyboard-response","trial_index":45,"time_elapsed":916266,"internal_node_id":"0.0-19.10-1.10"},{"rt":null,"stimulus":"<div style=\"background-color:#ff7157\"><h1 style=\"background-color:Tomato\">Bad luck! There was no prize in the box!</h1><h1 style=\"background-color:Tomato\">Remember, you need to keep going until you have 20 prizes!</h1><img id=\"box\" src=\"img/sad/greenopenboxsadthumb.png\"></img></div>","key_press":null,"trial_type":"html-keyboard-response","trial_index":45,"time_elapsed":917767,"internal_node_id":"0.0-19.10-1.10"},{"rt":384.64999999990687,"stimulus":"<p>Choose a box,</p>","button_pressed":3,"trial_type":"html-button-response","trial_index":46,"time_elapsed":918154,"internal_node_id":"0.0-19.11-0.11"},{"rate":0.7371176046657636,"trial_type":"html-keyboard-response","trial_index":47,"time_elapsed":918154,"internal_node_id":"0.0-19.11-1.11"},{"rt":null,"stimulus":"<div style=\"background-color:#6dce98\"><h1 style=\"background-color:MediumSeaGreen\" >You won a prize! Well done!</h1><div style=\"background-color:#6dce98\"><h1 style=\"background-color:MediumSeaGreen\" >Only 15 left to go!</h1><img id=\"box\" src=\"img/prizes/choc.png\"></img><img id=\"box\" src=\"img/empty/redopenbox.png\"></img></div>","key_press":null,"trial_type":"html-keyboard-response","trial_index":47,"time_elapsed":919670,"internal_node_id":"0.0-19.11-1.11"},{"rt":593.2050000000745,"stimulus":"<p>Choose a box,</p>","button_pressed":3,"trial_type":"html-button-response","trial_index":48,"time_elapsed":920266,"internal_node_id":"0.0-19.12-0.12"},{"rate":0.7371176046657636,"trial_type":"html-keyboard-response","trial_index":49,"time_elapsed":920266,"internal_node_id":"0.0-19.12-1.12"},{"rt":null,"stimulus":"<div style=\"background-color:#6dce98\"><h1 style=\"background-color:MediumSeaGreen\" >You won a prize! Well done!</h1><div style=\"background-color:#6dce98\"><h1 style=\"background-color:MediumSeaGreen\" >Only 14 left to go!</h1><img id=\"box\" src=\"img/prizes/choc.png\"></img><img id=\"box\" src=\"img/empty/redopenbox.png\"></img></div>","key_press":null,"trial_type":"html-keyboard-response","trial_index":49,"time_elapsed":921775,"internal_node_id":"0.0-19.12-1.12"},{"rt":641.1050000006799,"stimulus":"<p>Choose a box,</p>","button_pressed":3,"trial_type":"html-button-response","trial_index":50,"time_elapsed":922418,"internal_node_id":"0.0-19.13-0.13"},{"rate":0.7371176046657636,"trial_type":"html-keyboard-response","trial_index":51,"time_elapsed":922418,"internal_node_id":"0.0-19.13-1.13"},{"rt":null,"stimulus":"<div style=\"background-color:#6dce98\"><h1 style=\"background-color:MediumSeaGreen\" >You won a prize! Well done!</h1><div style=\"background-color:#6dce98\"><h1 style=\"background-color:MediumSeaGreen\" >Only 13 left to go!</h1><img id=\"box\" src=\"img/prizes/beachball.png\"></img><img id=\"box\" src=\"img/empty/redopenbox.png\"></img></div>","key_press":null,"trial_type":"html-keyboard-response","trial_index":51,"time_elapsed":923920,"internal_node_id":"0.0-19.13-1.13"},{"rt":703.9000000003725,"stimulus":"<p>Choose a box,</p>","button_pressed":2,"trial_type":"html-button-response","trial_index":52,"time_elapsed":924626,"internal_node_id":"0.0-19.14-0.14"},{"rate":0.886900488842138,"trial_type":"html-keyboard-response","trial_index":53,"time_elapsed":924626,"internal_node_id":"0.0-19.14-1.14"},{"rt":null,"stimulus":"<div style=\"background-color:#ff7157\"><h1 style=\"background-color:Tomato\">Bad luck! There was no prize in the box!</h1><h1 style=\"background-color:Tomato\">Remember, you need to keep going until you have 20 prizes!</h1><img id=\"box\" src=\"img/sad/purpleopenboxsadthumb.png\"></img></div>","key_press":null,"trial_type":"html-keyboard-response","trial_index":53,"time_elapsed":926128,"internal_node_id":"0.0-19.14-1.14"},{"rt":568.2100000004284,"stimulus":"<p>Choose a box,</p>","button_pressed":2,"trial_type":"html-button-response","trial_index":54,"time_elapsed":926698,"internal_node_id":"0.0-19.15-0.15"},{"rate":0.886900488842138,"trial_type":"html-keyboard-response","trial_index":55,"time_elapsed":926698,"internal_node_id":"0.0-19.15-1.15"},{"rt":null,"stimulus":"<div style=\"background-color:#6dce98\"><h1 style=\"background-color:MediumSeaGreen\" >You won a prize! Well done!</h1><div style=\"background-color:#6dce98\"><h1 style=\"background-color:MediumSeaGreen\" >Only 12 left to go!</h1><img id=\"box\" src=\"img/prizes/coins.png\"></img><img id=\"box\" src=\"img/empty/purpleopenbox.png\"></img></div>","key_press":null,"trial_type":"html-keyboard-response","trial_index":55,"time_elapsed":928202,"internal_node_id":"0.0-19.15-1.15"},{"rt":654.2399999998743,"stimulus":"<p>Choose a box,</p>","button_pressed":2,"trial_type":"html-button-response","trial_index":56,"time_elapsed":928858,"internal_node_id":"0.0-19.16-0.16"},{"rate":0.886900488842138,"trial_type":"html-keyboard-response","trial_index":57,"time_elapsed":928858,"internal_node_id":"0.0-19.16-1.16"},{"rt":null,"stimulus":"<div style=\"background-color:#6dce98\"><h1 style=\"background-color:MediumSeaGreen\" >You won a prize! Well done!</h1><div style=\"background-color:#6dce98\"><h1 style=\"background-color:MediumSeaGreen\" >Only 11 left to go!</h1><img id=\"box\" src=\"img/prizes/lolipop.png\"></img><img id=\"box\" src=\"img/empty/purpleopenbox.png\"></img></div>","key_press":null,"trial_type":"html-keyboard-response","trial_index":57,"time_elapsed":930360,"internal_node_id":"0.0-19.16-1.16"},{"rt":504.63500000024214,"stimulus":"<p>Choose a box,</p>","button_pressed":1,"trial_type":"html-button-response","trial_index":58,"time_elapsed":930866,"internal_node_id":"0.0-19.17-0.17"},{"rate":0.1607330751001126,"trial_type":"html-keyboard-response","trial_index":59,"time_elapsed":930866,"internal_node_id":"0.0-19.17-1.17"},{"rt":null,"stimulus":"<div style=\"background-color:#ff7157\"><h1 style=\"background-color:Tomato\">Bad luck! There was no prize in the box!</h1><h1 style=\"background-color:Tomato\">Remember, you need to keep going until you have 20 prizes!</h1><img id=\"box\" src=\"img/sad/greenopenboxsadthumb.png\"></img></div>","key_press":null,"trial_type":"html-keyboard-response","trial_index":59,"time_elapsed":932369,"internal_node_id":"0.0-19.17-1.17"},{"rt":343.0600000001723,"stimulus":"<p>Choose a box,</p>","button_pressed":0,"trial_type":"html-button-response","trial_index":60,"time_elapsed":932714,"internal_node_id":"0.0-19.18-0.18"},{"rate":0.29461832191225523,"trial_type":"html-keyboard-response","trial_index":61,"time_elapsed":932714,"internal_node_id":"0.0-19.18-1.18"},{"rt":null,"stimulus":"<div style=\"background-color:#ff7157\"><h1 style=\"background-color:Tomato\">Bad luck! There was no prize in the box!</h1><h1 style=\"background-color:Tomato\">Remember, you need to keep going until you have 20 prizes!</h1><img id=\"box\" src=\"img/sad/blueopenboxsadthumb.png\"></img></div>","key_press":null,"trial_type":"html-keyboard-response","trial_index":61,"time_elapsed":934216,"internal_node_id":"0.0-19.18-1.18"},{"rt":390.0450000000419,"stimulus":"<p>Choose a box,</p>","button_pressed":2,"trial_type":"html-button-response","trial_index":62,"time_elapsed":934610,"internal_node_id":"0.0-19.19-0.19"},{"rate":0.886900488842138,"trial_type":"html-keyboard-response","trial_index":63,"time_elapsed":934610,"internal_node_id":"0.0-19.19-1.19"},{"rt":null,"stimulus":"<div style=\"background-color:#6dce98\"><h1 style=\"background-color:MediumSeaGreen\" >You won a prize! Well done!</h1><div style=\"background-color:#6dce98\"><h1 style=\"background-color:MediumSeaGreen\" >Only 10 left to go!</h1><img id=\"box\" src=\"img/prizes/ring.png\"></img><img id=\"box\" src=\"img/empty/purpleopenbox.png\"></img></div>","key_press":null,"trial_type":"html-keyboard-response","trial_index":63,"time_elapsed":936112,"internal_node_id":"0.0-19.19-1.19"},{"rt":351.4849999991711,"stimulus":"<p>Choose a box,</p>","button_pressed":2,"trial_type":"html-button-response","trial_index":64,"time_elapsed":936466,"internal_node_id":"0.0-19.20-0.20"},{"rate":0.886900488842138,"trial_type":"html-keyboard-response","trial_index":65,"time_elapsed":936466,"internal_node_id":"0.0-19.20-1.20"},{"rt":null,"stimulus":"<div style=\"background-color:#6dce98\"><h1 style=\"background-color:MediumSeaGreen\" >You won a prize! Well done!</h1><div style=\"background-color:#6dce98\"><h1 style=\"background-color:MediumSeaGreen\" >Only 9 left to go!</h1><img id=\"box\" src=\"img/prizes/yoyo.png\"></img><img id=\"box\" src=\"img/empty/purpleopenbox.png\"></img></div>","key_press":null,"trial_type":"html-keyboard-response","trial_index":65,"time_elapsed":937969,"internal_node_id":"0.0-19.20-1.20"},{"rt":399.01000000012573,"stimulus":"<p>Choose a box,</p>","button_pressed":2,"trial_type":"html-button-response","trial_index":66,"time_elapsed":938370,"internal_node_id":"0.0-19.21-0.21"},{"rate":0.886900488842138,"trial_type":"html-keyboard-response","trial_index":67,"time_elapsed":938370,"internal_node_id":"0.0-19.21-1.21"},{"rt":null,"stimulus":"<div style=\"background-color:#6dce98\"><h1 style=\"background-color:MediumSeaGreen\" >You won a prize! Well done!</h1><div style=\"background-color:#6dce98\"><h1 style=\"background-color:MediumSeaGreen\" >Only 8 left to go!</h1><img id=\"box\" src=\"img/prizes/beachball.png\"></img><img id=\"box\" src=\"img/empty/purpleopenbox.png\"></img></div>","key_press":null,"trial_type":"html-keyboard-response","trial_index":67,"time_elapsed":939876,"internal_node_id":"0.0-19.21-1.21"},{"rt":643.7749999995576,"stimulus":"<p>Choose a box,</p>","button_pressed":3,"trial_type":"html-button-response","trial_index":68,"time_elapsed":940522,"internal_node_id":"0.0-19.22-0.22"},{"rate":0.7371176046657636,"trial_type":"html-keyboard-response","trial_index":69,"time_elapsed":940522,"internal_node_id":"0.0-19.22-1.22"},{"rt":null,"stimulus":"<div style=\"background-color:#6dce98\"><h1 style=\"background-color:MediumSeaGreen\" >You won a prize! Well done!</h1><div style=\"background-color:#6dce98\"><h1 style=\"background-color:MediumSeaGreen\" >Only 7 left to go!</h1><img id=\"box\" src=\"img/prizes/flowers.png\"></img><img id=\"box\" src=\"img/empty/redopenbox.png\"></img></div>","key_press":null,"trial_type":"html-keyboard-response","trial_index":69,"time_elapsed":942024,"internal_node_id":"0.0-19.22-1.22"},{"rt":543.6350000000093,"stimulus":"<p>Choose a box,</p>","button_pressed":3,"trial_type":"html-button-response","trial_index":70,"time_elapsed":942570,"internal_node_id":"0.0-19.23-0.23"},{"rate":0.7371176046657636,"trial_type":"html-keyboard-response","trial_index":71,"time_elapsed":942570,"internal_node_id":"0.0-19.23-1.23"},{"rt":null,"stimulus":"<div style=\"background-color:#6dce98\"><h1 style=\"background-color:MediumSeaGreen\" >You won a prize! Well done!</h1><div style=\"background-color:#6dce98\"><h1 style=\"background-color:MediumSeaGreen\" >Only 6 left to go!</h1><img id=\"box\" src=\"img/prizes/duck.png\"></img><img id=\"box\" src=\"img/empty/redopenbox.png\"></img></div>","key_press":null,"trial_type":"html-keyboard-response","trial_index":71,"time_elapsed":944073,"internal_node_id":"0.0-19.23-1.23"},{"rt":382.6599999993341,"stimulus":"<p>Choose a box,</p>","button_pressed":2,"trial_type":"html-button-response","trial_index":72,"time_elapsed":944459,"internal_node_id":"0.0-19.24-0.24"},{"rate":0.886900488842138,"trial_type":"html-keyboard-response","trial_index":73,"time_elapsed":944459,"internal_node_id":"0.0-19.24-1.24"},{"rt":null,"stimulus":"<div style=\"background-color:#ff7157\"><h1 style=\"background-color:Tomato\">Bad luck! There was no prize in the box!</h1><h1 style=\"background-color:Tomato\">Remember, you need to keep going until you have 20 prizes!</h1><img id=\"box\" src=\"img/sad/purpleopenboxsadthumb.png\"></img></div>","key_press":null,"trial_type":"html-keyboard-response","trial_index":73,"time_elapsed":945961,"internal_node_id":"0.0-19.24-1.24"},{"rt":1895.4050000002608,"stimulus":"<p>Choose a box,</p>","button_pressed":1,"trial_type":"html-button-response","trial_index":74,"time_elapsed":947858,"internal_node_id":"0.0-19.25-0.25"},{"rate":0.1607330751001126,"trial_type":"html-keyboard-response","trial_index":75,"time_elapsed":947858,"internal_node_id":"0.0-19.25-1.25"},{"rt":null,"stimulus":"<div style=\"background-color:#ff7157\"><h1 style=\"background-color:Tomato\">Bad luck! There was no prize in the box!</h1><h1 style=\"background-color:Tomato\">Remember, you need to keep going until you have 20 prizes!</h1><img id=\"box\" src=\"img/sad/greenopenboxsadthumb.png\"></img></div>","key_press":null,"trial_type":"html-keyboard-response","trial_index":75,"time_elapsed":949359,"internal_node_id":"0.0-19.25-1.25"},{"rt":417.40500000014435,"stimulus":"<p>Choose a box,</p>","button_pressed":0,"trial_type":"html-button-response","trial_index":76,"time_elapsed":949778,"internal_node_id":"0.0-19.26-0.26"},{"rate":0.29461832191225523,"trial_type":"html-keyboard-response","trial_index":77,"time_elapsed":949778,"internal_node_id":"0.0-19.26-1.26"},{"rt":null,"stimulus":"<div style=\"background-color:#ff7157\"><h1 style=\"background-color:Tomato\">Bad luck! There was no prize in the box!</h1><h1 style=\"background-color:Tomato\">Remember, you need to keep going until you have 20 prizes!</h1><img id=\"box\" src=\"img/sad/blueopenboxsadthumb.png\"></img></div>","key_press":null,"trial_type":"html-keyboard-response","trial_index":77,"time_elapsed":951281,"internal_node_id":"0.0-19.26-1.26"},{"rt":358.7800000004936,"stimulus":"<p>Choose a box,</p>","button_pressed":3,"trial_type":"html-button-response","trial_index":78,"time_elapsed":951642,"internal_node_id":"0.0-19.27-0.27"},{"rate":0.7371176046657636,"trial_type":"html-keyboard-response","trial_index":79,"time_elapsed":951642,"internal_node_id":"0.0-19.27-1.27"},{"rt":null,"stimulus":"<div style=\"background-color:#6dce98\"><h1 style=\"background-color:MediumSeaGreen\" >You won a prize! Well done!</h1><div style=\"background-color:#6dce98\"><h1 style=\"background-color:MediumSeaGreen\" >Only 5 left to go!</h1><img id=\"box\" src=\"img/prizes/lolipop.png\"></img><img id=\"box\" src=\"img/empty/redopenbox.png\"></img></div>","key_press":null,"trial_type":"html-keyboard-response","trial_index":79,"time_elapsed":953145,"internal_node_id":"0.0-19.27-1.27"},{"rt":343.0299999999115,"stimulus":"<p>Choose a box,</p>","button_pressed":3,"trial_type":"html-button-response","trial_index":80,"time_elapsed":953491,"internal_node_id":"0.0-19.28-0.28"},{"rate":0.7371176046657636,"trial_type":"html-keyboard-response","trial_index":81,"time_elapsed":953491,"internal_node_id":"0.0-19.28-1.28"},{"rt":null,"stimulus":"<div style=\"background-color:#ff7157\"><h1 style=\"background-color:Tomato\">Bad luck! There was no prize in the box!</h1><h1 style=\"background-color:Tomato\">Remember, you need to keep going until you have 20 prizes!</h1><img id=\"box\" src=\"img/sad/redopenboxsadthumb.png\"></img></div>","key_press":null,"trial_type":"html-keyboard-response","trial_index":81,"time_elapsed":954995,"internal_node_id":"0.0-19.28-1.28"},{"rt":676.4450000000652,"stimulus":"<p>Choose a box,</p>","button_pressed":0,"trial_type":"html-button-response","trial_index":82,"time_elapsed":955674,"internal_node_id":"0.0-19.29-0.29"},{"rate":0.29461832191225523,"trial_type":"html-keyboard-response","trial_index":83,"time_elapsed":955674,"internal_node_id":"0.0-19.29-1.29"},{"rt":null,"stimulus":"<div style=\"background-color:#ff7157\"><h1 style=\"background-color:Tomato\">Bad luck! There was no prize in the box!</h1><h1 style=\"background-color:Tomato\">Remember, you need to keep going until you have 20 prizes!</h1><img id=\"box\" src=\"img/sad/blueopenboxsadthumb.png\"></img></div>","key_press":null,"trial_type":"html-keyboard-response","trial_index":83,"time_elapsed":957175,"internal_node_id":"0.0-19.29-1.29"},{"rt":336.05999999970663,"stimulus":"<p>Choose a box,</p>","button_pressed":1,"trial_type":"html-button-response","trial_index":84,"time_elapsed":957514,"internal_node_id":"0.0-19.30-0.30"},{"rate":0.1607330751001126,"trial_type":"html-keyboard-response","trial_index":85,"time_elapsed":957514,"internal_node_id":"0.0-19.30-1.30"},{"rt":null,"stimulus":"<div style=\"background-color:#ff7157\"><h1 style=\"background-color:Tomato\">Bad luck! There was no prize in the box!</h1><h1 style=\"background-color:Tomato\">Remember, you need to keep going until you have 20 prizes!</h1><img id=\"box\" src=\"img/sad/greenopenboxsadthumb.png\"></img></div>","key_press":null,"trial_type":"html-keyboard-response","trial_index":85,"time_elapsed":959016,"internal_node_id":"0.0-19.30-1.30"},{"rt":375.6050000000978,"stimulus":"<p>Choose a box,</p>","button_pressed":2,"trial_type":"html-button-response","trial_index":86,"time_elapsed":959394,"internal_node_id":"0.0-19.31-0.31"},{"rate":0.886900488842138,"trial_type":"html-keyboard-response","trial_index":87,"time_elapsed":959394,"internal_node_id":"0.0-19.31-1.31"},{"rt":null,"stimulus":"<div style=\"background-color:#6dce98\"><h1 style=\"background-color:MediumSeaGreen\" >You won a prize! Well done!</h1><div style=\"background-color:#6dce98\"><h1 style=\"background-color:MediumSeaGreen\" >Only 4 left to go!</h1><img id=\"box\" src=\"img/prizes/lolipop.png\"></img><img id=\"box\" src=\"img/empty/purpleopenbox.png\"></img></div>","key_press":null,"trial_type":"html-keyboard-response","trial_index":87,"time_elapsed":960897,"internal_node_id":"0.0-19.31-1.31"},{"rt":326.8799999996554,"stimulus":"<p>Choose a box,</p>","button_pressed":2,"trial_type":"html-button-response","trial_index":88,"time_elapsed":961226,"internal_node_id":"0.0-19.32-0.32"},{"rate":0.886900488842138,"trial_type":"html-keyboard-response","trial_index":89,"time_elapsed":961226,"internal_node_id":"0.0-19.32-1.32"},{"rt":null,"stimulus":"<div style=\"background-color:#6dce98\"><h1 style=\"background-color:MediumSeaGreen\" >You won a prize! Well done!</h1><div style=\"background-color:#6dce98\"><h1 style=\"background-color:MediumSeaGreen\" >Only 3 left to go!</h1><img id=\"box\" src=\"img/prizes/yoyo.png\"></img><img id=\"box\" src=\"img/empty/purpleopenbox.png\"></img></div>","key_press":null,"trial_type":"html-keyboard-response","trial_index":89,"time_elapsed":962728,"internal_node_id":"0.0-19.32-1.32"},{"rt":391.20999999984633,"stimulus":"<p>Choose a box,</p>","button_pressed":1,"trial_type":"html-button-response","trial_index":90,"time_elapsed":963122,"internal_node_id":"0.0-19.33-0.33"},{"rate":0.1607330751001126,"trial_type":"html-keyboard-response","trial_index":91,"time_elapsed":963122,"internal_node_id":"0.0-19.33-1.33"},{"rt":null,"stimulus":"<div style=\"background-color:#ff7157\"><h1 style=\"background-color:Tomato\">Bad luck! There was no prize in the box!</h1><h1 style=\"background-color:Tomato\">Remember, you need to keep going until you have 20 prizes!</h1><img id=\"box\" src=\"img/sad/greenopenboxsadthumb.png\"></img></div>","key_press":null,"trial_type":"html-keyboard-response","trial_index":91,"time_elapsed":964624,"internal_node_id":"0.0-19.33-1.33"},{"rt":400.6349999998929,"stimulus":"<p>Choose a box,</p>","button_pressed":0,"trial_type":"html-button-response","trial_index":92,"time_elapsed":965026,"internal_node_id":"0.0-19.34-0.34"},{"rate":0.29461832191225523,"trial_type":"html-keyboard-response","trial_index":93,"time_elapsed":965026,"internal_node_id":"0.0-19.34-1.34"},{"rt":null,"stimulus":"<div style=\"background-color:#ff7157\"><h1 style=\"background-color:Tomato\">Bad luck! There was no prize in the box!</h1><h1 style=\"background-color:Tomato\">Remember, you need to keep going until you have 20 prizes!</h1><img id=\"box\" src=\"img/sad/blueopenboxsadthumb.png\"></img></div>","key_press":null,"trial_type":"html-keyboard-response","trial_index":93,"time_elapsed":966528,"internal_node_id":"0.0-19.34-1.34"},{"rt":367.9700000002049,"stimulus":"<p>Choose a box,</p>","button_pressed":3,"trial_type":"html-button-response","trial_index":94,"time_elapsed":966898,"internal_node_id":"0.0-19.35-0.35"},{"rate":0.7371176046657636,"trial_type":"html-keyboard-response","trial_index":95,"time_elapsed":966898,"internal_node_id":"0.0-19.35-1.35"},{"rt":null,"stimulus":"<div style=\"background-color:#ff7157\"><h1 style=\"background-color:Tomato\">Bad luck! There was no prize in the box!</h1><h1 style=\"background-color:Tomato\">Remember, you need to keep going until you have 20 prizes!</h1><img id=\"box\" src=\"img/sad/redopenboxsadthumb.png\"></img></div>","key_press":null,"trial_type":"html-keyboard-response","trial_index":95,"time_elapsed":968406,"internal_node_id":"0.0-19.35-1.35"},{"rt":906.175000000163,"stimulus":"<p>Choose a box,</p>","button_pressed":2,"trial_type":"html-button-response","trial_index":96,"time_elapsed":969314,"internal_node_id":"0.0-19.36-0.36"},{"rate":0.886900488842138,"trial_type":"html-keyboard-response","trial_index":97,"time_elapsed":969314,"internal_node_id":"0.0-19.36-1.36"},{"rt":null,"stimulus":"<div style=\"background-color:#6dce98\"><h1 style=\"background-color:MediumSeaGreen\" >You won a prize! Well done!</h1><div style=\"background-color:#6dce98\"><h1 style=\"background-color:MediumSeaGreen\" >Only 2 left to go!</h1><img id=\"box\" src=\"img/prizes/flowers.png\"></img><img id=\"box\" src=\"img/empty/purpleopenbox.png\"></img></div>","key_press":null,"trial_type":"html-keyboard-response","trial_index":97,"time_elapsed":970818,"internal_node_id":"0.0-19.36-1.36"},{"rt":422.6100000005681,"stimulus":"<p>Choose a box,</p>","button_pressed":2,"trial_type":"html-button-response","trial_index":98,"time_elapsed":971242,"internal_node_id":"0.0-19.37-0.37"},{"rate":0.886900488842138,"trial_type":"html-keyboard-response","trial_index":99,"time_elapsed":971242,"internal_node_id":"0.0-19.37-1.37"},{"rt":null,"stimulus":"<div style=\"background-color:#6dce98\"><h1 style=\"background-color:MediumSeaGreen\" >You won a prize! Well done!</h1><div style=\"background-color:#6dce98\"><h1 style=\"background-color:MediumSeaGreen\" >Only 1 left to go!</h1><img id=\"box\" src=\"img/prizes/bear.png\"></img><img id=\"box\" src=\"img/empty/purpleopenbox.png\"></img></div>","key_press":null,"trial_type":"html-keyboard-response","trial_index":99,"time_elapsed":972744,"internal_node_id":"0.0-19.37-1.37"},{"rt":1088.4700000005541,"stimulus":"<p>Choose a box,</p>","button_pressed":2,"trial_type":"html-button-response","trial_index":100,"time_elapsed":973834,"internal_node_id":"0.0-19.38-0.38"},{"rate":0.886900488842138,"trial_type":"html-keyboard-response","trial_index":101,"time_elapsed":973834,"internal_node_id":"0.0-19.38-1.38"},{"rt":null,"stimulus":"<div style=\"background-color:#6dce98\"><h1 style=\"background-color:MediumSeaGreen\" >You won a prize! Well done!</h1><div style=\"background-color:#6dce98\"><h1 style=\"background-color:MediumSeaGreen\" >Only 0 left to go!</h1><img id=\"box\" src=\"img/prizes/choc.png\"></img><img id=\"box\" src=\"img/empty/purpleopenbox.png\"></img></div>","key_press":null,"trial_type":"html-keyboard-response","trial_index":101,"time_elapsed":975340,"internal_node_id":"0.0-19.38-1.38"},{"rt":65140.82499999949,"responses":"{\"Q0\":\"It makes no sense to me\",\"Q1\":\"I noticed that the most common gifts are in a purple box, and if it wasn't, I took the others one by one\"}","trial_type":"survey-text","trial_index":102,"time_elapsed":1040490,"internal_node_id":"0.0-20.0"}]