[{"view_history":"[{\"page_index\":0,\"viewing_time\":28971.260000000257},{\"page_index\":1,\"viewing_time\":9213.11500000047},{\"page_index\":2,\"viewing_time\":15643.645000000106},{\"page_index\":3,\"viewing_time\":5123.854999999821},{\"page_index\":4,\"viewing_time\":6625.855000000229},{\"page_index\":5,\"viewing_time\":8151.905000000625}]","rt":73731.0150000012,"trial_type":"instructions","trial_index":0,"time_elapsed":73731,"internal_node_id":"0.0-0.0"},{"rt":7710.560000001351,"responses":"{\"Q0\":\"Yes\",\"Q1\":\"Yes\",\"Q2\":\"Yes\"}","question_order":"[0,1,2]","trial_type":"survey-multi-choice","trial_index":1,"time_elapsed":81446,"internal_node_id":"0.0-1.0-0.0"},{"rt":15750.600000001214,"responses":"{\"Q0\":\"Yes\",\"Q1\":\"Yes\",\"Q2\":\"Yes\"}","question_order":"[0,1,2]","trial_type":"survey-multi-choice","trial_index":2,"time_elapsed":97207,"internal_node_id":"0.0-2.0-0.0"},{"rt":8265.625,"responses":"{\"Q0\":\"5e6758c4a8c7654cc553eb9f\"}","trial_type":"survey-text","trial_index":3,"time_elapsed":105481,"internal_node_id":"0.0-3.0"},{"rt":7298.445000000356,"responses":"{\"Q0\":\"Female\",\"Q1\":\"18-25\"}","question_order":"[0,1]","trial_type":"survey-multi-choice","trial_index":4,"time_elapsed":112788,"internal_node_id":"0.0-4.0"},{"rt":4157.839999999851,"responses":"{\"Q0\":\"\"}","trial_type":"survey-text","trial_index":5,"time_elapsed":116953,"internal_node_id":"0.0-5.0"},{"view_history":"[{\"page_index\":0,\"viewing_time\":5235.044999999445}]","rt":5235.355000000709,"trial_type":"instructions","trial_index":6,"time_elapsed":122189,"internal_node_id":"0.0-6.0"},{"rt":30946.305000001288,"responses":"{\"Interested\":3,\"Distressed\":1,\"Excited\":2,\"Upset\":2}","question_order":"[0,1,2,3]","trial_type":"survey-likert","trial_index":7,"time_elapsed":153138,"internal_node_id":"0.0-7.0"},{"rt":26197.42500000031,"responses":"{\"Strong\":3,\"Guilty\":1,\"Scared\":2,\"Hostile\":0}","question_order":"[0,1,2,3]","trial_type":"survey-likert","trial_index":8,"time_elapsed":179337,"internal_node_id":"0.0-8.0"},{"rt":15771.034999999742,"responses":"{\"Enthusiastic\":3,\"Proud\":3,\"Irritable\":2,\"Alert\":1}","question_order":"[0,1,2,3]","trial_type":"survey-likert","trial_index":9,"time_elapsed":195115,"internal_node_id":"0.0-9.0"},{"rt":14712.219999999448,"responses":"{\"Ashamed\":1,\"Inspired\":3,\"Nervous\":2,\"Determined\":3}","question_order":"[0,1,2,3]","trial_type":"survey-likert","trial_index":10,"time_elapsed":209835,"internal_node_id":"0.0-10.0"},{"rt":25829.799999999523,"responses":"{\"Attentive\":2,\"Jittery\":0,\"Active\":3,\"Afraid\":1}","question_order":"[0,1,2,3]","trial_type":"survey-likert","trial_index":11,"time_elapsed":235682,"internal_node_id":"0.0-11.0"},{"rt":20264.645000001095,"responses":"{\"Q0\":1,\"Q1\":0,\"Q2\":0,\"Q3\":1}","question_order":"[0,1,2,3]","trial_type":"survey-likert","trial_index":12,"time_elapsed":255954,"internal_node_id":"0.0-12.0"},{"rt":35564.5399999994,"responses":"{\"Q0\":2,\"Q1\":0,\"Q2\":0,\"Q3\":0}","question_order":"[0,1,2,3]","trial_type":"survey-likert","trial_index":13,"time_elapsed":291525,"internal_node_id":"0.0-13.0"},{"rt":17418.944999999425,"responses":"{\"Q0\":1,\"Q1\":0,\"Q2\":1,\"Q3\":0}","question_order":"[0,1,2,3]","trial_type":"survey-likert","trial_index":14,"time_elapsed":308951,"internal_node_id":"0.0-14.0"},{"rt":16806.36500000034,"responses":"{\"Q0\":0,\"Q1\":1,\"Q2\":1}","question_order":"[0,1,2]","trial_type":"survey-likert","trial_index":15,"time_elapsed":325764,"internal_node_id":"0.0-15.0"},{"view_history":"[{\"page_index\":0,\"viewing_time\":2014.8100000005797},{\"page_index\":1,\"viewing_time\":12647.694999999658},{\"page_index\":2,\"viewing_time\":10587.770000000077}]","rt":25250.949999999604,"trial_type":"instructions","trial_index":16,"time_elapsed":351024,"internal_node_id":"0.0-16.0"},{"rt":4831.995000000461,"stimulus":"<p>Choose a box,</p>","button_pressed":3,"trial_type":"html-button-response","trial_index":17,"time_elapsed":355859,"internal_node_id":"0.0-17.0-0.0"},{"rate":0.8406027747555522,"trial_type":"html-keyboard-response","trial_index":18,"time_elapsed":355860,"internal_node_id":"0.0-17.0-1.0"},{"rt":null,"stimulus":"<div style=\"background-color:#6dce98\"><h1 style=\"background-color:MediumSeaGreen\" >You won a prize! Well done!</h1><div style=\"background-color:#6dce98\"><h1 style=\"background-color:MediumSeaGreen\" >Only 19 left to go!</h1><img id=\"box\" src=\"img/prizes/beachball.png\"></img><img id=\"box\" src=\"img/empty/redopenbox.png\"></img></div>","key_press":null,"trial_type":"html-keyboard-response","trial_index":18,"time_elapsed":357361,"internal_node_id":"0.0-17.0-1.0"},{"rt":2993.9800000010873,"stimulus":"<p>Choose a box,</p>","button_pressed":0,"trial_type":"html-button-response","trial_index":19,"time_elapsed":360357,"internal_node_id":"0.0-17.0-0.1"},{"rate":0.2887202189250869,"trial_type":"html-keyboard-response","trial_index":20,"time_elapsed":360357,"internal_node_id":"0.0-17.0-1.1"},{"rt":null,"stimulus":"<div style=\"background-color:#ff7157\"><h1 style=\"background-color:Tomato\">Bad luck! There was no prize in the box!</h1><h1 style=\"background-color:Tomato\">Remember, you need to keep going until you have 20 prizes!</h1><img id=\"box\" src=\"img/sad/blueopenboxsadthumb.png\"></img></div>","key_press":null,"trial_type":"html-keyboard-response","trial_index":20,"time_elapsed":361859,"internal_node_id":"0.0-17.0-1.1"},{"rt":776.6850000006962,"stimulus":"<p>Choose a box,</p>","button_pressed":3,"trial_type":"html-button-response","trial_index":21,"time_elapsed":362637,"internal_node_id":"0.0-17.0-0.2"},{"rate":0.8406027747555522,"trial_type":"html-keyboard-response","trial_index":22,"time_elapsed":362637,"internal_node_id":"0.0-17.0-1.2"},{"rt":null,"stimulus":"<div style=\"background-color:#ff7157\"><h1 style=\"background-color:Tomato\">Bad luck! There was no prize in the box!</h1><h1 style=\"background-color:Tomato\">Remember, you need to keep going until you have 20 prizes!</h1><img id=\"box\" src=\"img/sad/redopenboxsadthumb.png\"></img></div>","key_press":null,"trial_type":"html-keyboard-response","trial_index":22,"time_elapsed":364139,"internal_node_id":"0.0-17.0-1.2"},{"view_history":"[{\"page_index\":0,\"viewing_time\":1249.8350000004866}]","rt":1250.09499999939,"trial_type":"instructions","trial_index":23,"time_elapsed":365390,"internal_node_id":"0.0-18.0"},{"rt":2906.5549999995856,"stimulus":"<p>Choose a box,</p>","button_pressed":3,"trial_type":"html-button-response","trial_index":24,"time_elapsed":368298,"internal_node_id":"0.0-19.0-0.0"},{"rate":0.6491640309091969,"trial_type":"html-keyboard-response","trial_index":25,"time_elapsed":368299,"internal_node_id":"0.0-19.0-1.0"},{"rt":null,"stimulus":"<div style=\"background-color:#ff7157\"><h1 style=\"background-color:Tomato\">Bad luck! There was no prize in the box!</h1><h1 style=\"background-color:Tomato\">Remember, you need to keep going until you have 20 prizes!</h1><img id=\"box\" src=\"img/sad/redopenboxsadthumb.png\"></img></div>","key_press":null,"trial_type":"html-keyboard-response","trial_index":25,"time_elapsed":369800,"internal_node_id":"0.0-19.0-1.0"},{"rt":654.6650000000373,"stimulus":"<p>Choose a box,</p>","button_pressed":1,"trial_type":"html-button-response","trial_index":26,"time_elapsed":370456,"internal_node_id":"0.0-19.1-0.1"},{"rate":0.3050086184875032,"trial_type":"html-keyboard-response","trial_index":27,"time_elapsed":370457,"internal_node_id":"0.0-19.1-1.1"},{"rt":null,"stimulus":"<div style=\"background-color:#6dce98\"><h1 style=\"background-color:MediumSeaGreen\" >You won a prize! Well done!</h1><div style=\"background-color:#6dce98\"><h1 style=\"background-color:MediumSeaGreen\" >Only 19 left to go!</h1><img id=\"box\" src=\"img/prizes/lolipop.png\"></img><img id=\"box\" src=\"img/empty/greenopenbox.png\"></img></div>","key_press":null,"trial_type":"html-keyboard-response","trial_index":27,"time_elapsed":371958,"internal_node_id":"0.0-19.1-1.1"},{"rt":1386.979999999341,"stimulus":"<p>Choose a box,</p>","button_pressed":2,"trial_type":"html-button-response","trial_index":28,"time_elapsed":373346,"internal_node_id":"0.0-19.2-0.2"},{"rate":0.1767820468587766,"trial_type":"html-keyboard-response","trial_index":29,"time_elapsed":373347,"internal_node_id":"0.0-19.2-1.2"},{"rt":null,"stimulus":"<div style=\"background-color:#ff7157\"><h1 style=\"background-color:Tomato\">Bad luck! There was no prize in the box!</h1><h1 style=\"background-color:Tomato\">Remember, you need to keep going until you have 20 prizes!</h1><img id=\"box\" src=\"img/sad/purpleopenboxsadthumb.png\"></img></div>","key_press":null,"trial_type":"html-keyboard-response","trial_index":29,"time_elapsed":374848,"internal_node_id":"0.0-19.2-1.2"},{"rt":782.9000000001979,"stimulus":"<p>Choose a box,</p>","button_pressed":0,"trial_type":"html-button-response","trial_index":30,"time_elapsed":375632,"internal_node_id":"0.0-19.3-0.3"},{"rate":0.44332294462763605,"trial_type":"html-keyboard-response","trial_index":31,"time_elapsed":375632,"internal_node_id":"0.0-19.3-1.3"},{"rt":null,"stimulus":"<div style=\"background-color:#ff7157\"><h1 style=\"background-color:Tomato\">Bad luck! There was no prize in the box!</h1><h1 style=\"background-color:Tomato\">Remember, you need to keep going until you have 20 prizes!</h1><img id=\"box\" src=\"img/sad/blueopenboxsadthumb.png\"></img></div>","key_press":null,"trial_type":"html-keyboard-response","trial_index":31,"time_elapsed":377133,"internal_node_id":"0.0-19.3-1.3"},{"rt":579.6300000001793,"stimulus":"<p>Choose a box,</p>","button_pressed":3,"trial_type":"html-button-response","trial_index":32,"time_elapsed":377714,"internal_node_id":"0.0-19.4-0.4"},{"rate":0.6491640309091969,"trial_type":"html-keyboard-response","trial_index":33,"time_elapsed":377715,"internal_node_id":"0.0-19.4-1.4"},{"rt":null,"stimulus":"<div style=\"background-color:#6dce98\"><h1 style=\"background-color:MediumSeaGreen\" >You won a prize! Well done!</h1><div style=\"background-color:#6dce98\"><h1 style=\"background-color:MediumSeaGreen\" >Only 18 left to go!</h1><img id=\"box\" src=\"img/prizes/choc.png\"></img><img id=\"box\" src=\"img/empty/redopenbox.png\"></img></div>","key_press":null,"trial_type":"html-keyboard-response","trial_index":33,"time_elapsed":379217,"internal_node_id":"0.0-19.4-1.4"},{"rt":242.1000000013155,"stimulus":"<p>Choose a box,</p>","button_pressed":0,"trial_type":"html-button-response","trial_index":34,"time_elapsed":379460,"internal_node_id":"0.0-19.5-0.5"},{"rate":0.44332294462763605,"trial_type":"html-keyboard-response","trial_index":35,"time_elapsed":379461,"internal_node_id":"0.0-19.5-1.5"},{"rt":null,"stimulus":"<div style=\"background-color:#ff7157\"><h1 style=\"background-color:Tomato\">Bad luck! There was no prize in the box!</h1><h1 style=\"background-color:Tomato\">Remember, you need to keep going until you have 20 prizes!</h1><img id=\"box\" src=\"img/sad/blueopenboxsadthumb.png\"></img></div>","key_press":null,"trial_type":"html-keyboard-response","trial_index":35,"time_elapsed":380963,"internal_node_id":"0.0-19.5-1.5"},{"rt":116.38499999931082,"stimulus":"<p>Choose a box,</p>","button_pressed":2,"trial_type":"html-button-response","trial_index":36,"time_elapsed":381080,"internal_node_id":"0.0-19.6-0.6"},{"rate":0.1767820468587766,"trial_type":"html-keyboard-response","trial_index":37,"time_elapsed":381080,"internal_node_id":"0.0-19.6-1.6"},{"rt":null,"stimulus":"<div style=\"background-color:#ff7157\"><h1 style=\"background-color:Tomato\">Bad luck! There was no prize in the box!</h1><h1 style=\"background-color:Tomato\">Remember, you need to keep going until you have 20 prizes!</h1><img id=\"box\" src=\"img/sad/purpleopenboxsadthumb.png\"></img></div>","key_press":null,"trial_type":"html-keyboard-response","trial_index":37,"time_elapsed":382582,"internal_node_id":"0.0-19.6-1.6"},{"rt":350.9100000010221,"stimulus":"<p>Choose a box,</p>","button_pressed":1,"trial_type":"html-button-response","trial_index":38,"time_elapsed":382934,"internal_node_id":"0.0-19.7-0.7"},{"rate":0.3050086184875032,"trial_type":"html-keyboard-response","trial_index":39,"time_elapsed":382934,"internal_node_id":"0.0-19.7-1.7"},{"rt":null,"stimulus":"<div style=\"background-color:#ff7157\"><h1 style=\"background-color:Tomato\">Bad luck! There was no prize in the box!</h1><h1 style=\"background-color:Tomato\">Remember, you need to keep going until you have 20 prizes!</h1><img id=\"box\" src=\"img/sad/greenopenboxsadthumb.png\"></img></div>","key_press":null,"trial_type":"html-keyboard-response","trial_index":39,"time_elapsed":384436,"internal_node_id":"0.0-19.7-1.7"},{"rt":340.965000001248,"stimulus":"<p>Choose a box,</p>","button_pressed":3,"trial_type":"html-button-response","trial_index":40,"time_elapsed":384778,"internal_node_id":"0.0-19.8-0.8"},{"rate":0.6491640309091969,"trial_type":"html-keyboard-response","trial_index":41,"time_elapsed":384778,"internal_node_id":"0.0-19.8-1.8"},{"rt":null,"stimulus":"<div style=\"background-color:#6dce98\"><h1 style=\"background-color:MediumSeaGreen\" >You won a prize! Well done!</h1><div style=\"background-color:#6dce98\"><h1 style=\"background-color:MediumSeaGreen\" >Only 17 left to go!</h1><img id=\"box\" src=\"img/prizes/ring.png\"></img><img id=\"box\" src=\"img/empty/redopenbox.png\"></img></div>","key_press":null,"trial_type":"html-keyboard-response","trial_index":41,"time_elapsed":386280,"internal_node_id":"0.0-19.8-1.8"},{"rt":604.8000000009779,"stimulus":"<p>Choose a box,</p>","button_pressed":3,"trial_type":"html-button-response","trial_index":42,"time_elapsed":386886,"internal_node_id":"0.0-19.9-0.9"},{"rate":0.6491640309091969,"trial_type":"html-keyboard-response","trial_index":43,"time_elapsed":386886,"internal_node_id":"0.0-19.9-1.9"},{"rt":null,"stimulus":"<div style=\"background-color:#6dce98\"><h1 style=\"background-color:MediumSeaGreen\" >You won a prize! Well done!</h1><div style=\"background-color:#6dce98\"><h1 style=\"background-color:MediumSeaGreen\" >Only 16 left to go!</h1><img id=\"box\" src=\"img/prizes/beachball.png\"></img><img id=\"box\" src=\"img/empty/redopenbox.png\"></img></div>","key_press":null,"trial_type":"html-keyboard-response","trial_index":43,"time_elapsed":388388,"internal_node_id":"0.0-19.9-1.9"},{"rt":462.58499999932246,"stimulus":"<p>Choose a box,</p>","button_pressed":3,"trial_type":"html-button-response","trial_index":44,"time_elapsed":388852,"internal_node_id":"0.0-19.10-0.10"},{"rate":0.6491640309091969,"trial_type":"html-keyboard-response","trial_index":45,"time_elapsed":388852,"internal_node_id":"0.0-19.10-1.10"},{"rt":null,"stimulus":"<div style=\"background-color:#6dce98\"><h1 style=\"background-color:MediumSeaGreen\" >You won a prize! Well done!</h1><div style=\"background-color:#6dce98\"><h1 style=\"background-color:MediumSeaGreen\" >Only 15 left to go!</h1><img id=\"box\" src=\"img/prizes/duck.png\"></img><img id=\"box\" src=\"img/empty/redopenbox.png\"></img></div>","key_press":null,"trial_type":"html-keyboard-response","trial_index":45,"time_elapsed":390354,"internal_node_id":"0.0-19.10-1.10"},{"rt":438.4799999988754,"stimulus":"<p>Choose a box,</p>","button_pressed":3,"trial_type":"html-button-response","trial_index":46,"time_elapsed":390794,"internal_node_id":"0.0-19.11-0.11"},{"rate":0.6491640309091969,"trial_type":"html-keyboard-response","trial_index":47,"time_elapsed":390794,"internal_node_id":"0.0-19.11-1.11"},{"rt":null,"stimulus":"<div style=\"background-color:#6dce98\"><h1 style=\"background-color:MediumSeaGreen\" >You won a prize! Well done!</h1><div style=\"background-color:#6dce98\"><h1 style=\"background-color:MediumSeaGreen\" >Only 14 left to go!</h1><img id=\"box\" src=\"img/prizes/coins.png\"></img><img id=\"box\" src=\"img/empty/redopenbox.png\"></img></div>","key_press":null,"trial_type":"html-keyboard-response","trial_index":47,"time_elapsed":392296,"internal_node_id":"0.0-19.11-1.11"},{"rt":504.4349999988917,"stimulus":"<p>Choose a box,</p>","button_pressed":3,"trial_type":"html-button-response","trial_index":48,"time_elapsed":392802,"internal_node_id":"0.0-19.12-0.12"},{"rate":0.6491640309091969,"trial_type":"html-keyboard-response","trial_index":49,"time_elapsed":392802,"internal_node_id":"0.0-19.12-1.12"},{"rt":null,"stimulus":"<div style=\"background-color:#6dce98\"><h1 style=\"background-color:MediumSeaGreen\" >You won a prize! Well done!</h1><div style=\"background-color:#6dce98\"><h1 style=\"background-color:MediumSeaGreen\" >Only 13 left to go!</h1><img id=\"box\" src=\"img/prizes/duck.png\"></img><img id=\"box\" src=\"img/empty/redopenbox.png\"></img></div>","key_press":null,"trial_type":"html-keyboard-response","trial_index":49,"time_elapsed":394303,"internal_node_id":"0.0-19.12-1.12"},{"rt":411.40500000072643,"stimulus":"<p>Choose a box,</p>","button_pressed":3,"trial_type":"html-button-response","trial_index":50,"time_elapsed":394716,"internal_node_id":"0.0-19.13-0.13"},{"rate":0.6491640309091969,"trial_type":"html-keyboard-response","trial_index":51,"time_elapsed":394716,"internal_node_id":"0.0-19.13-1.13"},{"rt":null,"stimulus":"<div style=\"background-color:#6dce98\"><h1 style=\"background-color:MediumSeaGreen\" >You won a prize! Well done!</h1><div style=\"background-color:#6dce98\"><h1 style=\"background-color:MediumSeaGreen\" >Only 12 left to go!</h1><img id=\"box\" src=\"img/prizes/bear.png\"></img><img id=\"box\" src=\"img/empty/redopenbox.png\"></img></div>","key_press":null,"trial_type":"html-keyboard-response","trial_index":51,"time_elapsed":396217,"internal_node_id":"0.0-19.13-1.13"},{"rt":455.21999999979744,"stimulus":"<p>Choose a box,</p>","button_pressed":3,"trial_type":"html-button-response","trial_index":52,"time_elapsed":396674,"internal_node_id":"0.0-19.14-0.14"},{"rate":0.6491640309091969,"trial_type":"html-keyboard-response","trial_index":53,"time_elapsed":396674,"internal_node_id":"0.0-19.14-1.14"},{"rt":null,"stimulus":"<div style=\"background-color:#6dce98\"><h1 style=\"background-color:MediumSeaGreen\" >You won a prize! Well done!</h1><div style=\"background-color:#6dce98\"><h1 style=\"background-color:MediumSeaGreen\" >Only 11 left to go!</h1><img id=\"box\" src=\"img/prizes/ring.png\"></img><img id=\"box\" src=\"img/empty/redopenbox.png\"></img></div>","key_press":null,"trial_type":"html-keyboard-response","trial_index":53,"time_elapsed":398175,"internal_node_id":"0.0-19.14-1.14"},{"rt":410.8799999994808,"stimulus":"<p>Choose a box,</p>","button_pressed":3,"trial_type":"html-button-response","trial_index":54,"time_elapsed":398588,"internal_node_id":"0.0-19.15-0.15"},{"rate":0.6491640309091969,"trial_type":"html-keyboard-response","trial_index":55,"time_elapsed":398588,"internal_node_id":"0.0-19.15-1.15"},{"rt":null,"stimulus":"<div style=\"background-color:#6dce98\"><h1 style=\"background-color:MediumSeaGreen\" >You won a prize! Well done!</h1><div style=\"background-color:#6dce98\"><h1 style=\"background-color:MediumSeaGreen\" >Only 10 left to go!</h1><img id=\"box\" src=\"img/prizes/duck.png\"></img><img id=\"box\" src=\"img/empty/redopenbox.png\"></img></div>","key_press":null,"trial_type":"html-keyboard-response","trial_index":55,"time_elapsed":400089,"internal_node_id":"0.0-19.15-1.15"},{"rt":456.9249999985914,"stimulus":"<p>Choose a box,</p>","button_pressed":3,"trial_type":"html-button-response","trial_index":56,"time_elapsed":400548,"internal_node_id":"0.0-19.16-0.16"},{"rate":0.6491640309091969,"trial_type":"html-keyboard-response","trial_index":57,"time_elapsed":400548,"internal_node_id":"0.0-19.16-1.16"},{"rt":null,"stimulus":"<div style=\"background-color:#6dce98\"><h1 style=\"background-color:MediumSeaGreen\" >You won a prize! Well done!</h1><div style=\"background-color:#6dce98\"><h1 style=\"background-color:MediumSeaGreen\" >Only 9 left to go!</h1><img id=\"box\" src=\"img/prizes/lolipop.png\"></img><img id=\"box\" src=\"img/empty/redopenbox.png\"></img></div>","key_press":null,"trial_type":"html-keyboard-response","trial_index":57,"time_elapsed":402049,"internal_node_id":"0.0-19.16-1.16"},{"rt":384.79999999981374,"stimulus":"<p>Choose a box,</p>","button_pressed":3,"trial_type":"html-button-response","trial_index":58,"time_elapsed":402436,"internal_node_id":"0.0-19.17-0.17"},{"rate":0.6491640309091969,"trial_type":"html-keyboard-response","trial_index":59,"time_elapsed":402436,"internal_node_id":"0.0-19.17-1.17"},{"rt":null,"stimulus":"<div style=\"background-color:#6dce98\"><h1 style=\"background-color:MediumSeaGreen\" >You won a prize! Well done!</h1><div style=\"background-color:#6dce98\"><h1 style=\"background-color:MediumSeaGreen\" >Only 8 left to go!</h1><img id=\"box\" src=\"img/prizes/duck.png\"></img><img id=\"box\" src=\"img/empty/redopenbox.png\"></img></div>","key_press":null,"trial_type":"html-keyboard-response","trial_index":59,"time_elapsed":403938,"internal_node_id":"0.0-19.17-1.17"},{"rt":676.9800000002142,"stimulus":"<p>Choose a box,</p>","button_pressed":3,"trial_type":"html-button-response","trial_index":60,"time_elapsed":404616,"internal_node_id":"0.0-19.18-0.18"},{"rate":0.6491640309091969,"trial_type":"html-keyboard-response","trial_index":61,"time_elapsed":404616,"internal_node_id":"0.0-19.18-1.18"},{"rt":null,"stimulus":"<div style=\"background-color:#6dce98\"><h1 style=\"background-color:MediumSeaGreen\" >You won a prize! Well done!</h1><div style=\"background-color:#6dce98\"><h1 style=\"background-color:MediumSeaGreen\" >Only 7 left to go!</h1><img id=\"box\" src=\"img/prizes/bear.png\"></img><img id=\"box\" src=\"img/empty/redopenbox.png\"></img></div>","key_press":null,"trial_type":"html-keyboard-response","trial_index":61,"time_elapsed":406118,"internal_node_id":"0.0-19.18-1.18"},{"rt":453.84499999997206,"stimulus":"<p>Choose a box,</p>","button_pressed":3,"trial_type":"html-button-response","trial_index":62,"time_elapsed":406574,"internal_node_id":"0.0-19.19-0.19"},{"rate":0.6491640309091969,"trial_type":"html-keyboard-response","trial_index":63,"time_elapsed":406574,"internal_node_id":"0.0-19.19-1.19"},{"rt":null,"stimulus":"<div style=\"background-color:#6dce98\"><h1 style=\"background-color:MediumSeaGreen\" >You won a prize! Well done!</h1><div style=\"background-color:#6dce98\"><h1 style=\"background-color:MediumSeaGreen\" >Only 6 left to go!</h1><img id=\"box\" src=\"img/prizes/yoyo.png\"></img><img id=\"box\" src=\"img/empty/redopenbox.png\"></img></div>","key_press":null,"trial_type":"html-keyboard-response","trial_index":63,"time_elapsed":408076,"internal_node_id":"0.0-19.19-1.19"},{"rt":444.5449999984703,"stimulus":"<p>Choose a box,</p>","button_pressed":3,"trial_type":"html-button-response","trial_index":64,"time_elapsed":408522,"internal_node_id":"0.0-19.20-0.20"},{"rate":0.6491640309091969,"trial_type":"html-keyboard-response","trial_index":65,"time_elapsed":408522,"internal_node_id":"0.0-19.20-1.20"},{"rt":null,"stimulus":"<div style=\"background-color:#6dce98\"><h1 style=\"background-color:MediumSeaGreen\" >You won a prize! Well done!</h1><div style=\"background-color:#6dce98\"><h1 style=\"background-color:MediumSeaGreen\" >Only 5 left to go!</h1><img id=\"box\" src=\"img/prizes/ring.png\"></img><img id=\"box\" src=\"img/empty/redopenbox.png\"></img></div>","key_press":null,"trial_type":"html-keyboard-response","trial_index":65,"time_elapsed":410024,"internal_node_id":"0.0-19.20-1.20"},{"rt":448.24999999947613,"stimulus":"<p>Choose a box,</p>","button_pressed":3,"trial_type":"html-button-response","trial_index":66,"time_elapsed":410474,"internal_node_id":"0.0-19.21-0.21"},{"rate":0.6491640309091969,"trial_type":"html-keyboard-response","trial_index":67,"time_elapsed":410474,"internal_node_id":"0.0-19.21-1.21"},{"rt":null,"stimulus":"<div style=\"background-color:#ff7157\"><h1 style=\"background-color:Tomato\">Bad luck! There was no prize in the box!</h1><h1 style=\"background-color:Tomato\">Remember, you need to keep going until you have 20 prizes!</h1><img id=\"box\" src=\"img/sad/redopenboxsadthumb.png\"></img></div>","key_press":null,"trial_type":"html-keyboard-response","trial_index":67,"time_elapsed":411976,"internal_node_id":"0.0-19.21-1.21"},{"rt":638.4350000007544,"stimulus":"<p>Choose a box,</p>","button_pressed":0,"trial_type":"html-button-response","trial_index":68,"time_elapsed":412616,"internal_node_id":"0.0-19.22-0.22"},{"rate":0.44332294462763605,"trial_type":"html-keyboard-response","trial_index":69,"time_elapsed":412616,"internal_node_id":"0.0-19.22-1.22"},{"rt":null,"stimulus":"<div style=\"background-color:#ff7157\"><h1 style=\"background-color:Tomato\">Bad luck! There was no prize in the box!</h1><h1 style=\"background-color:Tomato\">Remember, you need to keep going until you have 20 prizes!</h1><img id=\"box\" src=\"img/sad/blueopenboxsadthumb.png\"></img></div>","key_press":null,"trial_type":"html-keyboard-response","trial_index":69,"time_elapsed":414118,"internal_node_id":"0.0-19.22-1.22"},{"rt":477.82499999995343,"stimulus":"<p>Choose a box,</p>","button_pressed":3,"trial_type":"html-button-response","trial_index":70,"time_elapsed":414598,"internal_node_id":"0.0-19.23-0.23"},{"rate":0.6491640309091969,"trial_type":"html-keyboard-response","trial_index":71,"time_elapsed":414598,"internal_node_id":"0.0-19.23-1.23"},{"rt":null,"stimulus":"<div style=\"background-color:#ff7157\"><h1 style=\"background-color:Tomato\">Bad luck! There was no prize in the box!</h1><h1 style=\"background-color:Tomato\">Remember, you need to keep going until you have 20 prizes!</h1><img id=\"box\" src=\"img/sad/redopenboxsadthumb.png\"></img></div>","key_press":null,"trial_type":"html-keyboard-response","trial_index":71,"time_elapsed":416100,"internal_node_id":"0.0-19.23-1.23"},{"rt":684.6999999997788,"stimulus":"<p>Choose a box,</p>","button_pressed":2,"trial_type":"html-button-response","trial_index":72,"time_elapsed":416786,"internal_node_id":"0.0-19.24-0.24"},{"rate":0.1767820468587766,"trial_type":"html-keyboard-response","trial_index":73,"time_elapsed":416786,"internal_node_id":"0.0-19.24-1.24"},{"rt":null,"stimulus":"<div style=\"background-color:#ff7157\"><h1 style=\"background-color:Tomato\">Bad luck! There was no prize in the box!</h1><h1 style=\"background-color:Tomato\">Remember, you need to keep going until you have 20 prizes!</h1><img id=\"box\" src=\"img/sad/purpleopenboxsadthumb.png\"></img></div>","key_press":null,"trial_type":"html-keyboard-response","trial_index":73,"time_elapsed":418288,"internal_node_id":"0.0-19.24-1.24"},{"rt":348.9950000002864,"stimulus":"<p>Choose a box,</p>","button_pressed":1,"trial_type":"html-button-response","trial_index":74,"time_elapsed":418638,"internal_node_id":"0.0-19.25-0.25"},{"rate":0.3050086184875032,"trial_type":"html-keyboard-response","trial_index":75,"time_elapsed":418638,"internal_node_id":"0.0-19.25-1.25"},{"rt":null,"stimulus":"<div style=\"background-color:#ff7157\"><h1 style=\"background-color:Tomato\">Bad luck! There was no prize in the box!</h1><h1 style=\"background-color:Tomato\">Remember, you need to keep going until you have 20 prizes!</h1><img id=\"box\" src=\"img/sad/greenopenboxsadthumb.png\"></img></div>","key_press":null,"trial_type":"html-keyboard-response","trial_index":75,"time_elapsed":420140,"internal_node_id":"0.0-19.25-1.25"},{"rt":633.9699999989243,"stimulus":"<p>Choose a box,</p>","button_pressed":0,"trial_type":"html-button-response","trial_index":76,"time_elapsed":420776,"internal_node_id":"0.0-19.26-0.26"},{"rate":0.44332294462763605,"trial_type":"html-keyboard-response","trial_index":77,"time_elapsed":420776,"internal_node_id":"0.0-19.26-1.26"},{"rt":null,"stimulus":"<div style=\"background-color:#6dce98\"><h1 style=\"background-color:MediumSeaGreen\" >You won a prize! Well done!</h1><div style=\"background-color:#6dce98\"><h1 style=\"background-color:MediumSeaGreen\" >Only 4 left to go!</h1><img id=\"box\" src=\"img/prizes/yoyo.png\"></img><img id=\"box\" src=\"img/empty/blueopenbox.png\"></img></div>","key_press":null,"trial_type":"html-keyboard-response","trial_index":77,"time_elapsed":422278,"internal_node_id":"0.0-19.26-1.26"},{"rt":510.5550000007497,"stimulus":"<p>Choose a box,</p>","button_pressed":0,"trial_type":"html-button-response","trial_index":78,"time_elapsed":422790,"internal_node_id":"0.0-19.27-0.27"},{"rate":0.44332294462763605,"trial_type":"html-keyboard-response","trial_index":79,"time_elapsed":422790,"internal_node_id":"0.0-19.27-1.27"},{"rt":null,"stimulus":"<div style=\"background-color:#ff7157\"><h1 style=\"background-color:Tomato\">Bad luck! There was no prize in the box!</h1><h1 style=\"background-color:Tomato\">Remember, you need to keep going until you have 20 prizes!</h1><img id=\"box\" src=\"img/sad/blueopenboxsadthumb.png\"></img></div>","key_press":null,"trial_type":"html-keyboard-response","trial_index":79,"time_elapsed":424291,"internal_node_id":"0.0-19.27-1.27"},{"rt":467.62500000116415,"stimulus":"<p>Choose a box,</p>","button_pressed":3,"trial_type":"html-button-response","trial_index":80,"time_elapsed":424760,"internal_node_id":"0.0-19.28-0.28"},{"rate":0.6491640309091969,"trial_type":"html-keyboard-response","trial_index":81,"time_elapsed":424760,"internal_node_id":"0.0-19.28-1.28"},{"rt":null,"stimulus":"<div style=\"background-color:#ff7157\"><h1 style=\"background-color:Tomato\">Bad luck! There was no prize in the box!</h1><h1 style=\"background-color:Tomato\">Remember, you need to keep going until you have 20 prizes!</h1><img id=\"box\" src=\"img/sad/redopenboxsadthumb.png\"></img></div>","key_press":null,"trial_type":"html-keyboard-response","trial_index":81,"time_elapsed":426261,"internal_node_id":"0.0-19.28-1.28"},{"rt":1183.1700000002165,"stimulus":"<p>Choose a box,</p>","button_pressed":1,"trial_type":"html-button-response","trial_index":82,"time_elapsed":427445,"internal_node_id":"0.0-19.29-0.29"},{"rate":0.3050086184875032,"trial_type":"html-keyboard-response","trial_index":83,"time_elapsed":427446,"internal_node_id":"0.0-19.29-1.29"},{"rt":null,"stimulus":"<div style=\"background-color:#6dce98\"><h1 style=\"background-color:MediumSeaGreen\" >You won a prize! Well done!</h1><div style=\"background-color:#6dce98\"><h1 style=\"background-color:MediumSeaGreen\" >Only 3 left to go!</h1><img id=\"box\" src=\"img/prizes/coins.png\"></img><img id=\"box\" src=\"img/empty/greenopenbox.png\"></img></div>","key_press":null,"trial_type":"html-keyboard-response","trial_index":83,"time_elapsed":428947,"internal_node_id":"0.0-19.29-1.29"},{"rt":527.265000000596,"stimulus":"<p>Choose a box,</p>","button_pressed":2,"trial_type":"html-button-response","trial_index":84,"time_elapsed":429476,"internal_node_id":"0.0-19.30-0.30"},{"rate":0.1767820468587766,"trial_type":"html-keyboard-response","trial_index":85,"time_elapsed":429476,"internal_node_id":"0.0-19.30-1.30"},{"rt":null,"stimulus":"<div style=\"background-color:#ff7157\"><h1 style=\"background-color:Tomato\">Bad luck! There was no prize in the box!</h1><h1 style=\"background-color:Tomato\">Remember, you need to keep going until you have 20 prizes!</h1><img id=\"box\" src=\"img/sad/purpleopenboxsadthumb.png\"></img></div>","key_press":null,"trial_type":"html-keyboard-response","trial_index":85,"time_elapsed":430978,"internal_node_id":"0.0-19.30-1.30"},{"rt":1052.0250000008382,"stimulus":"<p>Choose a box,</p>","button_pressed":0,"trial_type":"html-button-response","trial_index":86,"time_elapsed":432031,"internal_node_id":"0.0-19.31-0.31"},{"rate":0.44332294462763605,"trial_type":"html-keyboard-response","trial_index":87,"time_elapsed":432032,"internal_node_id":"0.0-19.31-1.31"},{"rt":null,"stimulus":"<div style=\"background-color:#6dce98\"><h1 style=\"background-color:MediumSeaGreen\" >You won a prize! Well done!</h1><div style=\"background-color:#6dce98\"><h1 style=\"background-color:MediumSeaGreen\" >Only 2 left to go!</h1><img id=\"box\" src=\"img/prizes/yoyo.png\"></img><img id=\"box\" src=\"img/empty/blueopenbox.png\"></img></div>","key_press":null,"trial_type":"html-keyboard-response","trial_index":87,"time_elapsed":433533,"internal_node_id":"0.0-19.31-1.31"},{"rt":444.574999999546,"stimulus":"<p>Choose a box,</p>","button_pressed":2,"trial_type":"html-button-response","trial_index":88,"time_elapsed":433980,"internal_node_id":"0.0-19.32-0.32"},{"rate":0.1767820468587766,"trial_type":"html-keyboard-response","trial_index":89,"time_elapsed":433980,"internal_node_id":"0.0-19.32-1.32"},{"rt":null,"stimulus":"<div style=\"background-color:#ff7157\"><h1 style=\"background-color:Tomato\">Bad luck! There was no prize in the box!</h1><h1 style=\"background-color:Tomato\">Remember, you need to keep going until you have 20 prizes!</h1><img id=\"box\" src=\"img/sad/purpleopenboxsadthumb.png\"></img></div>","key_press":null,"trial_type":"html-keyboard-response","trial_index":89,"time_elapsed":435481,"internal_node_id":"0.0-19.32-1.32"},{"rt":516.6900000004098,"stimulus":"<p>Choose a box,</p>","button_pressed":1,"trial_type":"html-button-response","trial_index":90,"time_elapsed":436000,"internal_node_id":"0.0-19.33-0.33"},{"rate":0.3050086184875032,"trial_type":"html-keyboard-response","trial_index":91,"time_elapsed":436000,"internal_node_id":"0.0-19.33-1.33"},{"rt":null,"stimulus":"<div style=\"background-color:#ff7157\"><h1 style=\"background-color:Tomato\">Bad luck! There was no prize in the box!</h1><h1 style=\"background-color:Tomato\">Remember, you need to keep going until you have 20 prizes!</h1><img id=\"box\" src=\"img/sad/greenopenboxsadthumb.png\"></img></div>","key_press":null,"trial_type":"html-keyboard-response","trial_index":91,"time_elapsed":437500,"internal_node_id":"0.0-19.33-1.33"},{"rt":851.7050000009476,"stimulus":"<p>Choose a box,</p>","button_pressed":1,"trial_type":"html-button-response","trial_index":92,"time_elapsed":438353,"internal_node_id":"0.0-19.34-0.34"},{"rate":0.3050086184875032,"trial_type":"html-keyboard-response","trial_index":93,"time_elapsed":438354,"internal_node_id":"0.0-19.34-1.34"},{"rt":null,"stimulus":"<div style=\"background-color:#ff7157\"><h1 style=\"background-color:Tomato\">Bad luck! There was no prize in the box!</h1><h1 style=\"background-color:Tomato\">Remember, you need to keep going until you have 20 prizes!</h1><img id=\"box\" src=\"img/sad/greenopenboxsadthumb.png\"></img></div>","key_press":null,"trial_type":"html-keyboard-response","trial_index":93,"time_elapsed":439854,"internal_node_id":"0.0-19.34-1.34"},{"rt":547.5699999987846,"stimulus":"<p>Choose a box,</p>","button_pressed":1,"trial_type":"html-button-response","trial_index":94,"time_elapsed":440403,"internal_node_id":"0.0-19.35-0.35"},{"rate":0.3050086184875032,"trial_type":"html-keyboard-response","trial_index":95,"time_elapsed":440403,"internal_node_id":"0.0-19.35-1.35"},{"rt":null,"stimulus":"<div style=\"background-color:#ff7157\"><h1 style=\"background-color:Tomato\">Bad luck! There was no prize in the box!</h1><h1 style=\"background-color:Tomato\">Remember, you need to keep going until you have 20 prizes!</h1><img id=\"box\" src=\"img/sad/greenopenboxsadthumb.png\"></img></div>","key_press":null,"trial_type":"html-keyboard-response","trial_index":95,"time_elapsed":441905,"internal_node_id":"0.0-19.35-1.35"},{"rt":432.7250000005588,"stimulus":"<p>Choose a box,</p>","button_pressed":0,"trial_type":"html-button-response","trial_index":96,"time_elapsed":442339,"internal_node_id":"0.0-19.36-0.36"},{"rate":0.44332294462763605,"trial_type":"html-keyboard-response","trial_index":97,"time_elapsed":442340,"internal_node_id":"0.0-19.36-1.36"},{"rt":null,"stimulus":"<div style=\"background-color:#6dce98\"><h1 style=\"background-color:MediumSeaGreen\" >You won a prize! Well done!</h1><div style=\"background-color:#6dce98\"><h1 style=\"background-color:MediumSeaGreen\" >Only 1 left to go!</h1><img id=\"box\" src=\"img/prizes/ring.png\"></img><img id=\"box\" src=\"img/empty/blueopenbox.png\"></img></div>","key_press":null,"trial_type":"html-keyboard-response","trial_index":97,"time_elapsed":443841,"internal_node_id":"0.0-19.36-1.36"},{"rt":705.1750000009779,"stimulus":"<p>Choose a box,</p>","button_pressed":0,"trial_type":"html-button-response","trial_index":98,"time_elapsed":444547,"internal_node_id":"0.0-19.37-0.37"},{"rate":0.44332294462763605,"trial_type":"html-keyboard-response","trial_index":99,"time_elapsed":444547,"internal_node_id":"0.0-19.37-1.37"},{"rt":null,"stimulus":"<div style=\"background-color:#ff7157\"><h1 style=\"background-color:Tomato\">Bad luck! There was no prize in the box!</h1><h1 style=\"background-color:Tomato\">Remember, you need to keep going until you have 20 prizes!</h1><img id=\"box\" src=\"img/sad/blueopenboxsadthumb.png\"></img></div>","key_press":null,"trial_type":"html-keyboard-response","trial_index":99,"time_elapsed":446049,"internal_node_id":"0.0-19.37-1.37"},{"rt":408.5299999988056,"stimulus":"<p>Choose a box,</p>","button_pressed":3,"trial_type":"html-button-response","trial_index":100,"time_elapsed":446459,"internal_node_id":"0.0-19.38-0.38"},{"rate":0.6491640309091969,"trial_type":"html-keyboard-response","trial_index":101,"time_elapsed":446459,"internal_node_id":"0.0-19.38-1.38"},{"rt":null,"stimulus":"<div style=\"background-color:#ff7157\"><h1 style=\"background-color:Tomato\">Bad luck! There was no prize in the box!</h1><h1 style=\"background-color:Tomato\">Remember, you need to keep going until you have 20 prizes!</h1><img id=\"box\" src=\"img/sad/redopenboxsadthumb.png\"></img></div>","key_press":null,"trial_type":"html-keyboard-response","trial_index":101,"time_elapsed":447961,"internal_node_id":"0.0-19.38-1.38"},{"rt":407.4149999996298,"stimulus":"<p>Choose a box,</p>","button_pressed":2,"trial_type":"html-button-response","trial_index":102,"time_elapsed":448370,"internal_node_id":"0.0-19.39-0.39"},{"rate":0.1767820468587766,"trial_type":"html-keyboard-response","trial_index":103,"time_elapsed":448370,"internal_node_id":"0.0-19.39-1.39"},{"rt":null,"stimulus":"<div style=\"background-color:#ff7157\"><h1 style=\"background-color:Tomato\">Bad luck! There was no prize in the box!</h1><h1 style=\"background-color:Tomato\">Remember, you need to keep going until you have 20 prizes!</h1><img id=\"box\" src=\"img/sad/purpleopenboxsadthumb.png\"></img></div>","key_press":null,"trial_type":"html-keyboard-response","trial_index":103,"time_elapsed":449872,"internal_node_id":"0.0-19.39-1.39"},{"rt":513.5950000003213,"stimulus":"<p>Choose a box,</p>","button_pressed":1,"trial_type":"html-button-response","trial_index":104,"time_elapsed":450387,"internal_node_id":"0.0-19.40-0.40"},{"rate":0.3050086184875032,"trial_type":"html-keyboard-response","trial_index":105,"time_elapsed":450387,"internal_node_id":"0.0-19.40-1.40"},{"rt":null,"stimulus":"<div style=\"background-color:#6dce98\"><h1 style=\"background-color:MediumSeaGreen\" >You won a prize! Well done!</h1><div style=\"background-color:#6dce98\"><h1 style=\"background-color:MediumSeaGreen\" >Only 0 left to go!</h1><img id=\"box\" src=\"img/prizes/bear.png\"></img><img id=\"box\" src=\"img/empty/greenopenbox.png\"></img></div>","key_press":null,"trial_type":"html-keyboard-response","trial_index":105,"time_elapsed":451889,"internal_node_id":"0.0-19.40-1.40"},{"rt":237545.06000000035,"responses":"{\"Q0\":\"I don't know, some psychological magic\\n\",\"Q1\":\"At first, I tried to choose a box that had little gift lately, but when it stoped working i just pick up boxes randomly.\\n\"}","trial_type":"survey-text","trial_index":106,"time_elapsed":689444,"internal_node_id":"0.0-20.0"}]