[{"view_history":"[{\"page_index\":0,\"viewing_time\":125822.45499999955},{\"page_index\":1,\"viewing_time\":186423.17},{\"page_index\":2,\"viewing_time\":78632.65500000032},{\"page_index\":3,\"viewing_time\":166060.4299999996},{\"page_index\":4,\"viewing_time\":123615.61500000057},{\"page_index\":5,\"viewing_time\":22599.97499999916}]","rt":703156.3849999993,"trial_type":"instructions","trial_index":0,"time_elapsed":703173,"internal_node_id":"0.0-0.0"},{"rt":30121.56499999948,"responses":"{\"Q0\":\"Yes\",\"Q1\":\"Yes\",\"Q2\":\"Yes\"}","question_order":"[0,1,2]","trial_type":"survey-multi-choice","trial_index":1,"time_elapsed":733298,"internal_node_id":"0.0-1.0-0.0"},{"rt":16429.369999999763,"responses":"{\"Q0\":\"Yes\",\"Q1\":\"Yes\",\"Q2\":\"Yes\"}","question_order":"[0,1,2]","trial_type":"survey-multi-choice","trial_index":2,"time_elapsed":749735,"internal_node_id":"0.0-2.0-0.0"},{"rt":8369.159999999334,"responses":"{\"Q0\":\"5cefbe6f1234ed0001970821\"}","trial_type":"survey-text","trial_index":3,"time_elapsed":758114,"internal_node_id":"0.0-3.0"},{"rt":6417.784999999683,"responses":"{\"Q0\":\"Male\",\"Q1\":\"35-44\"}","question_order":"[0,1]","trial_type":"survey-multi-choice","trial_index":4,"time_elapsed":764533,"internal_node_id":"0.0-4.0"},{"rt":6700.869999999646,"responses":"{\"Q0\":\"\"}","trial_type":"survey-text","trial_index":5,"time_elapsed":771244,"internal_node_id":"0.0-5.0"},{"view_history":"[{\"page_index\":0,\"viewing_time\":6093.724999999744}]","rt":6094.145000000019,"trial_type":"instructions","trial_index":6,"time_elapsed":777339,"internal_node_id":"0.0-6.0"},{"rt":24257.22500000021,"responses":"{\"Interested\":2,\"Distressed\":2,\"Excited\":2,\"Upset\":2}","question_order":"[0,1,2,3]","trial_type":"survey-likert","trial_index":7,"time_elapsed":801599,"internal_node_id":"0.0-7.0"},{"rt":18325.32499999972,"responses":"{\"Strong\":1,\"Guilty\":2,\"Scared\":1,\"Hostile\":1}","question_order":"[0,1,2,3]","trial_type":"survey-likert","trial_index":8,"time_elapsed":819931,"internal_node_id":"0.0-8.0"},{"rt":12627.579999999376,"responses":"{\"Enthusiastic\":1,\"Proud\":1,\"Irritable\":3,\"Alert\":1}","question_order":"[0,1,2,3]","trial_type":"survey-likert","trial_index":9,"time_elapsed":832566,"internal_node_id":"0.0-9.0"},{"rt":10063.94000000006,"responses":"{\"Ashamed\":2,\"Inspired\":1,\"Nervous\":3,\"Determined\":1}","question_order":"[0,1,2,3]","trial_type":"survey-likert","trial_index":10,"time_elapsed":842637,"internal_node_id":"0.0-10.0"},{"rt":37862.4150000005,"responses":"{\"Attentive\":1,\"Jittery\":1,\"Active\":0,\"Afraid\":1}","question_order":"[0,1,2,3]","trial_type":"survey-likert","trial_index":11,"time_elapsed":880506,"internal_node_id":"0.0-11.0"},{"rt":25560.14999999944,"responses":"{\"Q0\":2,\"Q1\":2,\"Q2\":3,\"Q3\":3}","question_order":"[0,1,2,3]","trial_type":"survey-likert","trial_index":12,"time_elapsed":906073,"internal_node_id":"0.0-12.0"},{"rt":27465.53499999945,"responses":"{\"Q0\":1,\"Q1\":1,\"Q2\":2,\"Q3\":1}","question_order":"[0,1,2,3]","trial_type":"survey-likert","trial_index":13,"time_elapsed":933531,"internal_node_id":"0.0-13.0"},{"rt":16426.090000000782,"responses":"{\"Q0\":1,\"Q1\":1,\"Q2\":1,\"Q3\":3}","question_order":"[0,1,2,3]","trial_type":"survey-likert","trial_index":14,"time_elapsed":949964,"internal_node_id":"0.0-14.0"},{"rt":19546.44499999995,"responses":"{\"Q0\":0,\"Q1\":1,\"Q2\":1}","question_order":"[0,1,2]","trial_type":"survey-likert","trial_index":15,"time_elapsed":969518,"internal_node_id":"0.0-15.0"},{"view_history":"[{\"page_index\":0,\"viewing_time\":4455.81999999925},{\"page_index\":1,\"viewing_time\":16956.885000001406},{\"page_index\":2,\"viewing_time\":9695.654999999562}]","rt":31109.505000000354,"trial_type":"instructions","trial_index":16,"time_elapsed":1000651,"internal_node_id":"0.0-16.0"},{"rt":1533.6100000004517,"stimulus":"<p>Choose a box,</p>","button_pressed":0,"trial_type":"html-button-response","trial_index":17,"time_elapsed":1002187,"internal_node_id":"0.0-17.0-0.0"},{"rate":0.24678904239979532,"trial_type":"html-keyboard-response","trial_index":18,"time_elapsed":1002188,"internal_node_id":"0.0-17.0-1.0"},{"rt":null,"stimulus":"<div style=\"background-color:#6dce98\"><h1 style=\"background-color:MediumSeaGreen\" >You won a prize! Well done!</h1><div style=\"background-color:#6dce98\"><h1 style=\"background-color:MediumSeaGreen\" >Only 19 left to go!</h1><img id=\"box\" src=\"img/prizes/flowers.png\"></img><img id=\"box\" src=\"img/empty/blueopenbox.png\"></img></div>","key_press":null,"trial_type":"html-keyboard-response","trial_index":18,"time_elapsed":1003698,"internal_node_id":"0.0-17.0-1.0"},{"rt":1646.539999999688,"stimulus":"<p>Choose a box,</p>","button_pressed":1,"trial_type":"html-button-response","trial_index":19,"time_elapsed":1005351,"internal_node_id":"0.0-17.0-0.1"},{"rate":0.8038571120991211,"trial_type":"html-keyboard-response","trial_index":20,"time_elapsed":1005351,"internal_node_id":"0.0-17.0-1.1"},{"rt":null,"stimulus":"<div style=\"background-color:#6dce98\"><h1 style=\"background-color:MediumSeaGreen\" >You won a prize! Well done!</h1><div style=\"background-color:#6dce98\"><h1 style=\"background-color:MediumSeaGreen\" >Only 18 left to go!</h1><img id=\"box\" src=\"img/prizes/bear.png\"></img><img id=\"box\" src=\"img/empty/greenopenbox.png\"></img></div>","key_press":null,"trial_type":"html-keyboard-response","trial_index":20,"time_elapsed":1006862,"internal_node_id":"0.0-17.0-1.1"},{"rt":2326.204999999376,"stimulus":"<p>Choose a box,</p>","button_pressed":2,"trial_type":"html-button-response","trial_index":21,"time_elapsed":1009193,"internal_node_id":"0.0-17.0-0.2"},{"rate":0.6023478455988571,"trial_type":"html-keyboard-response","trial_index":22,"time_elapsed":1009193,"internal_node_id":"0.0-17.0-1.2"},{"rt":null,"stimulus":"<div style=\"background-color:#6dce98\"><h1 style=\"background-color:MediumSeaGreen\" >You won a prize! Well done!</h1><div style=\"background-color:#6dce98\"><h1 style=\"background-color:MediumSeaGreen\" >Only 17 left to go!</h1><img id=\"box\" src=\"img/prizes/duck.png\"></img><img id=\"box\" src=\"img/empty/purpleopenbox.png\"></img></div>","key_press":null,"trial_type":"html-keyboard-response","trial_index":22,"time_elapsed":1010702,"internal_node_id":"0.0-17.0-1.2"},{"view_history":"[{\"page_index\":0,\"viewing_time\":8746.830000000075}]","rt":8747.299999999115,"trial_type":"instructions","trial_index":23,"time_elapsed":1019455,"internal_node_id":"0.0-18.0"},{"rt":1131.1750000003958,"stimulus":"<p>Choose a box,</p>","button_pressed":0,"trial_type":"html-button-response","trial_index":24,"time_elapsed":1020589,"internal_node_id":"0.0-19.0-0.0"},{"rate":0.2654390554687838,"trial_type":"html-keyboard-response","trial_index":25,"time_elapsed":1020589,"internal_node_id":"0.0-19.0-1.0"},{"rt":null,"stimulus":"<div style=\"background-color:#ff7157\"><h1 style=\"background-color:Tomato\">Bad luck! There was no prize in the box!</h1><h1 style=\"background-color:Tomato\">Remember, you need to keep going until you have 20 prizes!</h1><img id=\"box\" src=\"img/sad/blueopenboxsadthumb.png\"></img></div>","key_press":null,"trial_type":"html-keyboard-response","trial_index":25,"time_elapsed":1022095,"internal_node_id":"0.0-19.0-1.0"},{"rt":2218.6650000003865,"stimulus":"<p>Choose a box,</p>","button_pressed":1,"trial_type":"html-button-response","trial_index":26,"time_elapsed":1024321,"internal_node_id":"0.0-19.1-0.1"},{"rate":0.41107507026802725,"trial_type":"html-keyboard-response","trial_index":27,"time_elapsed":1024321,"internal_node_id":"0.0-19.1-1.1"},{"rt":null,"stimulus":"<div style=\"background-color:#ff7157\"><h1 style=\"background-color:Tomato\">Bad luck! There was no prize in the box!</h1><h1 style=\"background-color:Tomato\">Remember, you need to keep going until you have 20 prizes!</h1><img id=\"box\" src=\"img/sad/greenopenboxsadthumb.png\"></img></div>","key_press":null,"trial_type":"html-keyboard-response","trial_index":27,"time_elapsed":1025824,"internal_node_id":"0.0-19.1-1.1"},{"rt":1633.9449999995995,"stimulus":"<p>Choose a box,</p>","button_pressed":2,"trial_type":"html-button-response","trial_index":28,"time_elapsed":1027462,"internal_node_id":"0.0-19.2-0.2"},{"rate":0.6863822224227691,"trial_type":"html-keyboard-response","trial_index":29,"time_elapsed":1027462,"internal_node_id":"0.0-19.2-1.2"},{"rt":null,"stimulus":"<div style=\"background-color:#6dce98\"><h1 style=\"background-color:MediumSeaGreen\" >You won a prize! Well done!</h1><div style=\"background-color:#6dce98\"><h1 style=\"background-color:MediumSeaGreen\" >Only 19 left to go!</h1><img id=\"box\" src=\"img/prizes/flowers.png\"></img><img id=\"box\" src=\"img/empty/purpleopenbox.png\"></img></div>","key_press":null,"trial_type":"html-keyboard-response","trial_index":29,"time_elapsed":1028964,"internal_node_id":"0.0-19.2-1.2"},{"rt":859.5150000001304,"stimulus":"<p>Choose a box,</p>","button_pressed":3,"trial_type":"html-button-response","trial_index":30,"time_elapsed":1029826,"internal_node_id":"0.0-19.3-0.3"},{"rate":0.8263913597826054,"trial_type":"html-keyboard-response","trial_index":31,"time_elapsed":1029827,"internal_node_id":"0.0-19.3-1.3"},{"rt":null,"stimulus":"<div style=\"background-color:#ff7157\"><h1 style=\"background-color:Tomato\">Bad luck! There was no prize in the box!</h1><h1 style=\"background-color:Tomato\">Remember, you need to keep going until you have 20 prizes!</h1><img id=\"box\" src=\"img/sad/redopenboxsadthumb.png\"></img></div>","key_press":null,"trial_type":"html-keyboard-response","trial_index":31,"time_elapsed":1031335,"internal_node_id":"0.0-19.3-1.3"},{"rt":1002.5999999998603,"stimulus":"<p>Choose a box,</p>","button_pressed":2,"trial_type":"html-button-response","trial_index":32,"time_elapsed":1032342,"internal_node_id":"0.0-19.4-0.4"},{"rate":0.6863822224227691,"trial_type":"html-keyboard-response","trial_index":33,"time_elapsed":1032343,"internal_node_id":"0.0-19.4-1.4"},{"rt":null,"stimulus":"<div style=\"background-color:#ff7157\"><h1 style=\"background-color:Tomato\">Bad luck! There was no prize in the box!</h1><h1 style=\"background-color:Tomato\">Remember, you need to keep going until you have 20 prizes!</h1><img id=\"box\" src=\"img/sad/purpleopenboxsadthumb.png\"></img></div>","key_press":null,"trial_type":"html-keyboard-response","trial_index":33,"time_elapsed":1033846,"internal_node_id":"0.0-19.4-1.4"},{"rt":658.6799999986542,"stimulus":"<p>Choose a box,</p>","button_pressed":1,"trial_type":"html-button-response","trial_index":34,"time_elapsed":1034508,"internal_node_id":"0.0-19.5-0.5"},{"rate":0.41107507026802725,"trial_type":"html-keyboard-response","trial_index":35,"time_elapsed":1034509,"internal_node_id":"0.0-19.5-1.5"},{"rt":null,"stimulus":"<div style=\"background-color:#ff7157\"><h1 style=\"background-color:Tomato\">Bad luck! There was no prize in the box!</h1><h1 style=\"background-color:Tomato\">Remember, you need to keep going until you have 20 prizes!</h1><img id=\"box\" src=\"img/sad/greenopenboxsadthumb.png\"></img></div>","key_press":null,"trial_type":"html-keyboard-response","trial_index":35,"time_elapsed":1036026,"internal_node_id":"0.0-19.5-1.5"},{"rt":677.024999999092,"stimulus":"<p>Choose a box,</p>","button_pressed":0,"trial_type":"html-button-response","trial_index":36,"time_elapsed":1036709,"internal_node_id":"0.0-19.6-0.6"},{"rate":0.2654390554687838,"trial_type":"html-keyboard-response","trial_index":37,"time_elapsed":1036709,"internal_node_id":"0.0-19.6-1.6"},{"rt":null,"stimulus":"<div style=\"background-color:#ff7157\"><h1 style=\"background-color:Tomato\">Bad luck! There was no prize in the box!</h1><h1 style=\"background-color:Tomato\">Remember, you need to keep going until you have 20 prizes!</h1><img id=\"box\" src=\"img/sad/blueopenboxsadthumb.png\"></img></div>","key_press":null,"trial_type":"html-keyboard-response","trial_index":37,"time_elapsed":1038221,"internal_node_id":"0.0-19.6-1.6"},{"rt":5185.330000000307,"stimulus":"<p>Choose a box,</p>","button_pressed":0,"trial_type":"html-button-response","trial_index":38,"time_elapsed":1043411,"internal_node_id":"0.0-19.7-0.7"},{"rate":0.2654390554687838,"trial_type":"html-keyboard-response","trial_index":39,"time_elapsed":1043411,"internal_node_id":"0.0-19.7-1.7"},{"rt":null,"stimulus":"<div style=\"background-color:#ff7157\"><h1 style=\"background-color:Tomato\">Bad luck! There was no prize in the box!</h1><h1 style=\"background-color:Tomato\">Remember, you need to keep going until you have 20 prizes!</h1><img id=\"box\" src=\"img/sad/blueopenboxsadthumb.png\"></img></div>","key_press":null,"trial_type":"html-keyboard-response","trial_index":39,"time_elapsed":1044917,"internal_node_id":"0.0-19.7-1.7"},{"rt":556.8100000000559,"stimulus":"<p>Choose a box,</p>","button_pressed":0,"trial_type":"html-button-response","trial_index":40,"time_elapsed":1045479,"internal_node_id":"0.0-19.8-0.8"},{"rate":0.2654390554687838,"trial_type":"html-keyboard-response","trial_index":41,"time_elapsed":1045479,"internal_node_id":"0.0-19.8-1.8"},{"rt":null,"stimulus":"<div style=\"background-color:#ff7157\"><h1 style=\"background-color:Tomato\">Bad luck! There was no prize in the box!</h1><h1 style=\"background-color:Tomato\">Remember, you need to keep going until you have 20 prizes!</h1><img id=\"box\" src=\"img/sad/blueopenboxsadthumb.png\"></img></div>","key_press":null,"trial_type":"html-keyboard-response","trial_index":41,"time_elapsed":1046985,"internal_node_id":"0.0-19.8-1.8"},{"rt":485.25999999942724,"stimulus":"<p>Choose a box,</p>","button_pressed":0,"trial_type":"html-button-response","trial_index":42,"time_elapsed":1047474,"internal_node_id":"0.0-19.9-0.9"},{"rate":0.2654390554687838,"trial_type":"html-keyboard-response","trial_index":43,"time_elapsed":1047475,"internal_node_id":"0.0-19.9-1.9"},{"rt":null,"stimulus":"<div style=\"background-color:#ff7157\"><h1 style=\"background-color:Tomato\">Bad luck! There was no prize in the box!</h1><h1 style=\"background-color:Tomato\">Remember, you need to keep going until you have 20 prizes!</h1><img id=\"box\" src=\"img/sad/blueopenboxsadthumb.png\"></img></div>","key_press":null,"trial_type":"html-keyboard-response","trial_index":43,"time_elapsed":1048983,"internal_node_id":"0.0-19.9-1.9"},{"rt":397.0000000009313,"stimulus":"<p>Choose a box,</p>","button_pressed":0,"trial_type":"html-button-response","trial_index":44,"time_elapsed":1049386,"internal_node_id":"0.0-19.10-0.10"},{"rate":0.2654390554687838,"trial_type":"html-keyboard-response","trial_index":45,"time_elapsed":1049386,"internal_node_id":"0.0-19.10-1.10"},{"rt":null,"stimulus":"<div style=\"background-color:#ff7157\"><h1 style=\"background-color:Tomato\">Bad luck! There was no prize in the box!</h1><h1 style=\"background-color:Tomato\">Remember, you need to keep going until you have 20 prizes!</h1><img id=\"box\" src=\"img/sad/blueopenboxsadthumb.png\"></img></div>","key_press":null,"trial_type":"html-keyboard-response","trial_index":45,"time_elapsed":1050901,"internal_node_id":"0.0-19.10-1.10"},{"rt":382.8950000004843,"stimulus":"<p>Choose a box,</p>","button_pressed":0,"trial_type":"html-button-response","trial_index":46,"time_elapsed":1051289,"internal_node_id":"0.0-19.11-0.11"},{"rate":0.2654390554687838,"trial_type":"html-keyboard-response","trial_index":47,"time_elapsed":1051289,"internal_node_id":"0.0-19.11-1.11"},{"rt":null,"stimulus":"<div style=\"background-color:#ff7157\"><h1 style=\"background-color:Tomato\">Bad luck! There was no prize in the box!</h1><h1 style=\"background-color:Tomato\">Remember, you need to keep going until you have 20 prizes!</h1><img id=\"box\" src=\"img/sad/blueopenboxsadthumb.png\"></img></div>","key_press":null,"trial_type":"html-keyboard-response","trial_index":47,"time_elapsed":1052801,"internal_node_id":"0.0-19.11-1.11"},{"rt":400.0299999988638,"stimulus":"<p>Choose a box,</p>","button_pressed":0,"trial_type":"html-button-response","trial_index":48,"time_elapsed":1053207,"internal_node_id":"0.0-19.12-0.12"},{"rate":0.2654390554687838,"trial_type":"html-keyboard-response","trial_index":49,"time_elapsed":1053207,"internal_node_id":"0.0-19.12-1.12"},{"rt":null,"stimulus":"<div style=\"background-color:#6dce98\"><h1 style=\"background-color:MediumSeaGreen\" >You won a prize! Well done!</h1><div style=\"background-color:#6dce98\"><h1 style=\"background-color:MediumSeaGreen\" >Only 18 left to go!</h1><img id=\"box\" src=\"img/prizes/duck.png\"></img><img id=\"box\" src=\"img/empty/blueopenbox.png\"></img></div>","key_press":null,"trial_type":"html-keyboard-response","trial_index":49,"time_elapsed":1054721,"internal_node_id":"0.0-19.12-1.12"},{"rt":1241.6249999988358,"stimulus":"<p>Choose a box,</p>","button_pressed":1,"trial_type":"html-button-response","trial_index":50,"time_elapsed":1055967,"internal_node_id":"0.0-19.13-0.13"},{"rate":0.41107507026802725,"trial_type":"html-keyboard-response","trial_index":51,"time_elapsed":1055967,"internal_node_id":"0.0-19.13-1.13"},{"rt":null,"stimulus":"<div style=\"background-color:#ff7157\"><h1 style=\"background-color:Tomato\">Bad luck! There was no prize in the box!</h1><h1 style=\"background-color:Tomato\">Remember, you need to keep going until you have 20 prizes!</h1><img id=\"box\" src=\"img/sad/greenopenboxsadthumb.png\"></img></div>","key_press":null,"trial_type":"html-keyboard-response","trial_index":51,"time_elapsed":1057471,"internal_node_id":"0.0-19.13-1.13"},{"rt":374.41499999840744,"stimulus":"<p>Choose a box,</p>","button_pressed":1,"trial_type":"html-button-response","trial_index":52,"time_elapsed":1057849,"internal_node_id":"0.0-19.14-0.14"},{"rate":0.41107507026802725,"trial_type":"html-keyboard-response","trial_index":53,"time_elapsed":1057850,"internal_node_id":"0.0-19.14-1.14"},{"rt":null,"stimulus":"<div style=\"background-color:#ff7157\"><h1 style=\"background-color:Tomato\">Bad luck! There was no prize in the box!</h1><h1 style=\"background-color:Tomato\">Remember, you need to keep going until you have 20 prizes!</h1><img id=\"box\" src=\"img/sad/greenopenboxsadthumb.png\"></img></div>","key_press":null,"trial_type":"html-keyboard-response","trial_index":53,"time_elapsed":1059364,"internal_node_id":"0.0-19.14-1.14"},{"rt":377.9200000008568,"stimulus":"<p>Choose a box,</p>","button_pressed":1,"trial_type":"html-button-response","trial_index":54,"time_elapsed":1059746,"internal_node_id":"0.0-19.15-0.15"},{"rate":0.41107507026802725,"trial_type":"html-keyboard-response","trial_index":55,"time_elapsed":1059747,"internal_node_id":"0.0-19.15-1.15"},{"rt":null,"stimulus":"<div style=\"background-color:#6dce98\"><h1 style=\"background-color:MediumSeaGreen\" >You won a prize! Well done!</h1><div style=\"background-color:#6dce98\"><h1 style=\"background-color:MediumSeaGreen\" >Only 17 left to go!</h1><img id=\"box\" src=\"img/prizes/lolipop.png\"></img><img id=\"box\" src=\"img/empty/greenopenbox.png\"></img></div>","key_press":null,"trial_type":"html-keyboard-response","trial_index":55,"time_elapsed":1061249,"internal_node_id":"0.0-19.15-1.15"},{"rt":1029.1350000007078,"stimulus":"<p>Choose a box,</p>","button_pressed":2,"trial_type":"html-button-response","trial_index":56,"time_elapsed":1062281,"internal_node_id":"0.0-19.16-0.16"},{"rate":0.6863822224227691,"trial_type":"html-keyboard-response","trial_index":57,"time_elapsed":1062281,"internal_node_id":"0.0-19.16-1.16"},{"rt":null,"stimulus":"<div style=\"background-color:#ff7157\"><h1 style=\"background-color:Tomato\">Bad luck! There was no prize in the box!</h1><h1 style=\"background-color:Tomato\">Remember, you need to keep going until you have 20 prizes!</h1><img id=\"box\" src=\"img/sad/purpleopenboxsadthumb.png\"></img></div>","key_press":null,"trial_type":"html-keyboard-response","trial_index":57,"time_elapsed":1063789,"internal_node_id":"0.0-19.16-1.16"},{"rt":369.7249999984633,"stimulus":"<p>Choose a box,</p>","button_pressed":2,"trial_type":"html-button-response","trial_index":58,"time_elapsed":1064163,"internal_node_id":"0.0-19.17-0.17"},{"rate":0.6863822224227691,"trial_type":"html-keyboard-response","trial_index":59,"time_elapsed":1064163,"internal_node_id":"0.0-19.17-1.17"},{"rt":null,"stimulus":"<div style=\"background-color:#6dce98\"><h1 style=\"background-color:MediumSeaGreen\" >You won a prize! Well done!</h1><div style=\"background-color:#6dce98\"><h1 style=\"background-color:MediumSeaGreen\" >Only 16 left to go!</h1><img id=\"box\" src=\"img/prizes/duck.png\"></img><img id=\"box\" src=\"img/empty/purpleopenbox.png\"></img></div>","key_press":null,"trial_type":"html-keyboard-response","trial_index":59,"time_elapsed":1065668,"internal_node_id":"0.0-19.17-1.17"},{"rt":911.0400000009686,"stimulus":"<p>Choose a box,</p>","button_pressed":3,"trial_type":"html-button-response","trial_index":60,"time_elapsed":1066584,"internal_node_id":"0.0-19.18-0.18"},{"rate":0.8263913597826054,"trial_type":"html-keyboard-response","trial_index":61,"time_elapsed":1066584,"internal_node_id":"0.0-19.18-1.18"},{"rt":null,"stimulus":"<div style=\"background-color:#6dce98\"><h1 style=\"background-color:MediumSeaGreen\" >You won a prize! Well done!</h1><div style=\"background-color:#6dce98\"><h1 style=\"background-color:MediumSeaGreen\" >Only 15 left to go!</h1><img id=\"box\" src=\"img/prizes/lolipop.png\"></img><img id=\"box\" src=\"img/empty/redopenbox.png\"></img></div>","key_press":null,"trial_type":"html-keyboard-response","trial_index":61,"time_elapsed":1068099,"internal_node_id":"0.0-19.18-1.18"},{"rt":3864.0699999995995,"stimulus":"<p>Choose a box,</p>","button_pressed":0,"trial_type":"html-button-response","trial_index":62,"time_elapsed":1071976,"internal_node_id":"0.0-19.19-0.19"},{"rate":0.2654390554687838,"trial_type":"html-keyboard-response","trial_index":63,"time_elapsed":1071976,"internal_node_id":"0.0-19.19-1.19"},{"rt":null,"stimulus":"<div style=\"background-color:#ff7157\"><h1 style=\"background-color:Tomato\">Bad luck! There was no prize in the box!</h1><h1 style=\"background-color:Tomato\">Remember, you need to keep going until you have 20 prizes!</h1><img id=\"box\" src=\"img/sad/blueopenboxsadthumb.png\"></img></div>","key_press":null,"trial_type":"html-keyboard-response","trial_index":63,"time_elapsed":1073477,"internal_node_id":"0.0-19.19-1.19"},{"rt":665.8200000000652,"stimulus":"<p>Choose a box,</p>","button_pressed":3,"trial_type":"html-button-response","trial_index":64,"time_elapsed":1074146,"internal_node_id":"0.0-19.20-0.20"},{"rate":0.8263913597826054,"trial_type":"html-keyboard-response","trial_index":65,"time_elapsed":1074146,"internal_node_id":"0.0-19.20-1.20"},{"rt":null,"stimulus":"<div style=\"background-color:#ff7157\"><h1 style=\"background-color:Tomato\">Bad luck! There was no prize in the box!</h1><h1 style=\"background-color:Tomato\">Remember, you need to keep going until you have 20 prizes!</h1><img id=\"box\" src=\"img/sad/redopenboxsadthumb.png\"></img></div>","key_press":null,"trial_type":"html-keyboard-response","trial_index":65,"time_elapsed":1075650,"internal_node_id":"0.0-19.20-1.20"},{"rt":521.0600000009872,"stimulus":"<p>Choose a box,</p>","button_pressed":3,"trial_type":"html-button-response","trial_index":66,"time_elapsed":1076175,"internal_node_id":"0.0-19.21-0.21"},{"rate":0.8263913597826054,"trial_type":"html-keyboard-response","trial_index":67,"time_elapsed":1076175,"internal_node_id":"0.0-19.21-1.21"},{"rt":null,"stimulus":"<div style=\"background-color:#6dce98\"><h1 style=\"background-color:MediumSeaGreen\" >You won a prize! Well done!</h1><div style=\"background-color:#6dce98\"><h1 style=\"background-color:MediumSeaGreen\" >Only 14 left to go!</h1><img id=\"box\" src=\"img/prizes/coins.png\"></img><img id=\"box\" src=\"img/empty/redopenbox.png\"></img></div>","key_press":null,"trial_type":"html-keyboard-response","trial_index":67,"time_elapsed":1077693,"internal_node_id":"0.0-19.21-1.21"},{"rt":944.5300000007264,"stimulus":"<p>Choose a box,</p>","button_pressed":2,"trial_type":"html-button-response","trial_index":68,"time_elapsed":1078642,"internal_node_id":"0.0-19.22-0.22"},{"rate":0.6863822224227691,"trial_type":"html-keyboard-response","trial_index":69,"time_elapsed":1078642,"internal_node_id":"0.0-19.22-1.22"},{"rt":null,"stimulus":"<div style=\"background-color:#6dce98\"><h1 style=\"background-color:MediumSeaGreen\" >You won a prize! Well done!</h1><div style=\"background-color:#6dce98\"><h1 style=\"background-color:MediumSeaGreen\" >Only 13 left to go!</h1><img id=\"box\" src=\"img/prizes/beachball.png\"></img><img id=\"box\" src=\"img/empty/purpleopenbox.png\"></img></div>","key_press":null,"trial_type":"html-keyboard-response","trial_index":69,"time_elapsed":1080153,"internal_node_id":"0.0-19.22-1.22"},{"rt":2705.039999998873,"stimulus":"<p>Choose a box,</p>","button_pressed":1,"trial_type":"html-button-response","trial_index":70,"time_elapsed":1082863,"internal_node_id":"0.0-19.23-0.23"},{"rate":0.41107507026802725,"trial_type":"html-keyboard-response","trial_index":71,"time_elapsed":1082863,"internal_node_id":"0.0-19.23-1.23"},{"rt":null,"stimulus":"<div style=\"background-color:#ff7157\"><h1 style=\"background-color:Tomato\">Bad luck! There was no prize in the box!</h1><h1 style=\"background-color:Tomato\">Remember, you need to keep going until you have 20 prizes!</h1><img id=\"box\" src=\"img/sad/greenopenboxsadthumb.png\"></img></div>","key_press":null,"trial_type":"html-keyboard-response","trial_index":71,"time_elapsed":1084376,"internal_node_id":"0.0-19.23-1.23"},{"rt":543.5450000003912,"stimulus":"<p>Choose a box,</p>","button_pressed":2,"trial_type":"html-button-response","trial_index":72,"time_elapsed":1084926,"internal_node_id":"0.0-19.24-0.24"},{"rate":0.6863822224227691,"trial_type":"html-keyboard-response","trial_index":73,"time_elapsed":1084926,"internal_node_id":"0.0-19.24-1.24"},{"rt":null,"stimulus":"<div style=\"background-color:#ff7157\"><h1 style=\"background-color:Tomato\">Bad luck! There was no prize in the box!</h1><h1 style=\"background-color:Tomato\">Remember, you need to keep going until you have 20 prizes!</h1><img id=\"box\" src=\"img/sad/purpleopenboxsadthumb.png\"></img></div>","key_press":null,"trial_type":"html-keyboard-response","trial_index":73,"time_elapsed":1086439,"internal_node_id":"0.0-19.24-1.24"},{"rt":745.484999999404,"stimulus":"<p>Choose a box,</p>","button_pressed":2,"trial_type":"html-button-response","trial_index":74,"time_elapsed":1087190,"internal_node_id":"0.0-19.25-0.25"},{"rate":0.6863822224227691,"trial_type":"html-keyboard-response","trial_index":75,"time_elapsed":1087190,"internal_node_id":"0.0-19.25-1.25"},{"rt":null,"stimulus":"<div style=\"background-color:#6dce98\"><h1 style=\"background-color:MediumSeaGreen\" >You won a prize! Well done!</h1><div style=\"background-color:#6dce98\"><h1 style=\"background-color:MediumSeaGreen\" >Only 12 left to go!</h1><img id=\"box\" src=\"img/prizes/lolipop.png\"></img><img id=\"box\" src=\"img/empty/purpleopenbox.png\"></img></div>","key_press":null,"trial_type":"html-keyboard-response","trial_index":75,"time_elapsed":1088692,"internal_node_id":"0.0-19.25-1.25"},{"rt":722.5149999994319,"stimulus":"<p>Choose a box,</p>","button_pressed":3,"trial_type":"html-button-response","trial_index":76,"time_elapsed":1089421,"internal_node_id":"0.0-19.26-0.26"},{"rate":0.8263913597826054,"trial_type":"html-keyboard-response","trial_index":77,"time_elapsed":1089421,"internal_node_id":"0.0-19.26-1.26"},{"rt":null,"stimulus":"<div style=\"background-color:#6dce98\"><h1 style=\"background-color:MediumSeaGreen\" >You won a prize! Well done!</h1><div style=\"background-color:#6dce98\"><h1 style=\"background-color:MediumSeaGreen\" >Only 11 left to go!</h1><img id=\"box\" src=\"img/prizes/lolipop.png\"></img><img id=\"box\" src=\"img/empty/redopenbox.png\"></img></div>","key_press":null,"trial_type":"html-keyboard-response","trial_index":77,"time_elapsed":1090923,"internal_node_id":"0.0-19.26-1.26"},{"rt":500.6300000003539,"stimulus":"<p>Choose a box,</p>","button_pressed":2,"trial_type":"html-button-response","trial_index":78,"time_elapsed":1091428,"internal_node_id":"0.0-19.27-0.27"},{"rate":0.6863822224227691,"trial_type":"html-keyboard-response","trial_index":79,"time_elapsed":1091429,"internal_node_id":"0.0-19.27-1.27"},{"rt":null,"stimulus":"<div style=\"background-color:#6dce98\"><h1 style=\"background-color:MediumSeaGreen\" >You won a prize! Well done!</h1><div style=\"background-color:#6dce98\"><h1 style=\"background-color:MediumSeaGreen\" >Only 10 left to go!</h1><img id=\"box\" src=\"img/prizes/bear.png\"></img><img id=\"box\" src=\"img/empty/purpleopenbox.png\"></img></div>","key_press":null,"trial_type":"html-keyboard-response","trial_index":79,"time_elapsed":1092931,"internal_node_id":"0.0-19.27-1.27"},{"rt":402.37499999976717,"stimulus":"<p>Choose a box,</p>","button_pressed":3,"trial_type":"html-button-response","trial_index":80,"time_elapsed":1093339,"internal_node_id":"0.0-19.28-0.28"},{"rate":0.8263913597826054,"trial_type":"html-keyboard-response","trial_index":81,"time_elapsed":1093339,"internal_node_id":"0.0-19.28-1.28"},{"rt":null,"stimulus":"<div style=\"background-color:#6dce98\"><h1 style=\"background-color:MediumSeaGreen\" >You won a prize! Well done!</h1><div style=\"background-color:#6dce98\"><h1 style=\"background-color:MediumSeaGreen\" >Only 9 left to go!</h1><img id=\"box\" src=\"img/prizes/choc.png\"></img><img id=\"box\" src=\"img/empty/redopenbox.png\"></img></div>","key_press":null,"trial_type":"html-keyboard-response","trial_index":81,"time_elapsed":1094846,"internal_node_id":"0.0-19.28-1.28"},{"rt":455.8699999996461,"stimulus":"<p>Choose a box,</p>","button_pressed":2,"trial_type":"html-button-response","trial_index":82,"time_elapsed":1095303,"internal_node_id":"0.0-19.29-0.29"},{"rate":0.6863822224227691,"trial_type":"html-keyboard-response","trial_index":83,"time_elapsed":1095303,"internal_node_id":"0.0-19.29-1.29"},{"rt":null,"stimulus":"<div style=\"background-color:#6dce98\"><h1 style=\"background-color:MediumSeaGreen\" >You won a prize! Well done!</h1><div style=\"background-color:#6dce98\"><h1 style=\"background-color:MediumSeaGreen\" >Only 8 left to go!</h1><img id=\"box\" src=\"img/prizes/yoyo.png\"></img><img id=\"box\" src=\"img/empty/purpleopenbox.png\"></img></div>","key_press":null,"trial_type":"html-keyboard-response","trial_index":83,"time_elapsed":1096805,"internal_node_id":"0.0-19.29-1.29"},{"rt":370.724999998929,"stimulus":"<p>Choose a box,</p>","button_pressed":3,"trial_type":"html-button-response","trial_index":84,"time_elapsed":1097181,"internal_node_id":"0.0-19.30-0.30"},{"rate":0.8263913597826054,"trial_type":"html-keyboard-response","trial_index":85,"time_elapsed":1097181,"internal_node_id":"0.0-19.30-1.30"},{"rt":null,"stimulus":"<div style=\"background-color:#6dce98\"><h1 style=\"background-color:MediumSeaGreen\" >You won a prize! Well done!</h1><div style=\"background-color:#6dce98\"><h1 style=\"background-color:MediumSeaGreen\" >Only 7 left to go!</h1><img id=\"box\" src=\"img/prizes/ring.png\"></img><img id=\"box\" src=\"img/empty/redopenbox.png\"></img></div>","key_press":null,"trial_type":"html-keyboard-response","trial_index":85,"time_elapsed":1098683,"internal_node_id":"0.0-19.30-1.30"},{"rt":446.42500000004657,"stimulus":"<p>Choose a box,</p>","button_pressed":2,"trial_type":"html-button-response","trial_index":86,"time_elapsed":1099134,"internal_node_id":"0.0-19.31-0.31"},{"rate":0.6863822224227691,"trial_type":"html-keyboard-response","trial_index":87,"time_elapsed":1099134,"internal_node_id":"0.0-19.31-1.31"},{"rt":null,"stimulus":"<div style=\"background-color:#6dce98\"><h1 style=\"background-color:MediumSeaGreen\" >You won a prize! Well done!</h1><div style=\"background-color:#6dce98\"><h1 style=\"background-color:MediumSeaGreen\" >Only 6 left to go!</h1><img id=\"box\" src=\"img/prizes/beachball.png\"></img><img id=\"box\" src=\"img/empty/purpleopenbox.png\"></img></div>","key_press":null,"trial_type":"html-keyboard-response","trial_index":87,"time_elapsed":1100636,"internal_node_id":"0.0-19.31-1.31"},{"rt":394.83999999891967,"stimulus":"<p>Choose a box,</p>","button_pressed":3,"trial_type":"html-button-response","trial_index":88,"time_elapsed":1101034,"internal_node_id":"0.0-19.32-0.32"},{"rate":0.8263913597826054,"trial_type":"html-keyboard-response","trial_index":89,"time_elapsed":1101034,"internal_node_id":"0.0-19.32-1.32"},{"rt":null,"stimulus":"<div style=\"background-color:#6dce98\"><h1 style=\"background-color:MediumSeaGreen\" >You won a prize! Well done!</h1><div style=\"background-color:#6dce98\"><h1 style=\"background-color:MediumSeaGreen\" >Only 5 left to go!</h1><img id=\"box\" src=\"img/prizes/beachball.png\"></img><img id=\"box\" src=\"img/empty/redopenbox.png\"></img></div>","key_press":null,"trial_type":"html-keyboard-response","trial_index":89,"time_elapsed":1102544,"internal_node_id":"0.0-19.32-1.32"},{"rt":495.9749999998603,"stimulus":"<p>Choose a box,</p>","button_pressed":2,"trial_type":"html-button-response","trial_index":90,"time_elapsed":1103044,"internal_node_id":"0.0-19.33-0.33"},{"rate":0.6863822224227691,"trial_type":"html-keyboard-response","trial_index":91,"time_elapsed":1103045,"internal_node_id":"0.0-19.33-1.33"},{"rt":null,"stimulus":"<div style=\"background-color:#ff7157\"><h1 style=\"background-color:Tomato\">Bad luck! There was no prize in the box!</h1><h1 style=\"background-color:Tomato\">Remember, you need to keep going until you have 20 prizes!</h1><img id=\"box\" src=\"img/sad/purpleopenboxsadthumb.png\"></img></div>","key_press":null,"trial_type":"html-keyboard-response","trial_index":91,"time_elapsed":1104546,"internal_node_id":"0.0-19.33-1.33"},{"rt":437.86499999975786,"stimulus":"<p>Choose a box,</p>","button_pressed":3,"trial_type":"html-button-response","trial_index":92,"time_elapsed":1104986,"internal_node_id":"0.0-19.34-0.34"},{"rate":0.8263913597826054,"trial_type":"html-keyboard-response","trial_index":93,"time_elapsed":1104986,"internal_node_id":"0.0-19.34-1.34"},{"rt":null,"stimulus":"<div style=\"background-color:#6dce98\"><h1 style=\"background-color:MediumSeaGreen\" >You won a prize! Well done!</h1><div style=\"background-color:#6dce98\"><h1 style=\"background-color:MediumSeaGreen\" >Only 4 left to go!</h1><img id=\"box\" src=\"img/prizes/yoyo.png\"></img><img id=\"box\" src=\"img/empty/redopenbox.png\"></img></div>","key_press":null,"trial_type":"html-keyboard-response","trial_index":93,"time_elapsed":1106488,"internal_node_id":"0.0-19.34-1.34"},{"rt":431.51499999850057,"stimulus":"<p>Choose a box,</p>","button_pressed":2,"trial_type":"html-button-response","trial_index":94,"time_elapsed":1106925,"internal_node_id":"0.0-19.35-0.35"},{"rate":0.6863822224227691,"trial_type":"html-keyboard-response","trial_index":95,"time_elapsed":1106925,"internal_node_id":"0.0-19.35-1.35"},{"rt":null,"stimulus":"<div style=\"background-color:#ff7157\"><h1 style=\"background-color:Tomato\">Bad luck! There was no prize in the box!</h1><h1 style=\"background-color:Tomato\">Remember, you need to keep going until you have 20 prizes!</h1><img id=\"box\" src=\"img/sad/purpleopenboxsadthumb.png\"></img></div>","key_press":null,"trial_type":"html-keyboard-response","trial_index":95,"time_elapsed":1108439,"internal_node_id":"0.0-19.35-1.35"},{"rt":576.5100000009406,"stimulus":"<p>Choose a box,</p>","button_pressed":3,"trial_type":"html-button-response","trial_index":96,"time_elapsed":1109020,"internal_node_id":"0.0-19.36-0.36"},{"rate":0.8263913597826054,"trial_type":"html-keyboard-response","trial_index":97,"time_elapsed":1109020,"internal_node_id":"0.0-19.36-1.36"},{"rt":null,"stimulus":"<div style=\"background-color:#6dce98\"><h1 style=\"background-color:MediumSeaGreen\" >You won a prize! Well done!</h1><div style=\"background-color:#6dce98\"><h1 style=\"background-color:MediumSeaGreen\" >Only 3 left to go!</h1><img id=\"box\" src=\"img/prizes/choc.png\"></img><img id=\"box\" src=\"img/empty/redopenbox.png\"></img></div>","key_press":null,"trial_type":"html-keyboard-response","trial_index":97,"time_elapsed":1110522,"internal_node_id":"0.0-19.36-1.36"},{"rt":536.694999998901,"stimulus":"<p>Choose a box,</p>","button_pressed":1,"trial_type":"html-button-response","trial_index":98,"time_elapsed":1111061,"internal_node_id":"0.0-19.37-0.37"},{"rate":0.41107507026802725,"trial_type":"html-keyboard-response","trial_index":99,"time_elapsed":1111061,"internal_node_id":"0.0-19.37-1.37"},{"rt":null,"stimulus":"<div style=\"background-color:#6dce98\"><h1 style=\"background-color:MediumSeaGreen\" >You won a prize! Well done!</h1><div style=\"background-color:#6dce98\"><h1 style=\"background-color:MediumSeaGreen\" >Only 2 left to go!</h1><img id=\"box\" src=\"img/prizes/ring.png\"></img><img id=\"box\" src=\"img/empty/greenopenbox.png\"></img></div>","key_press":null,"trial_type":"html-keyboard-response","trial_index":99,"time_elapsed":1112564,"internal_node_id":"0.0-19.37-1.37"},{"rt":426.4249999995809,"stimulus":"<p>Choose a box,</p>","button_pressed":3,"trial_type":"html-button-response","trial_index":100,"time_elapsed":1112994,"internal_node_id":"0.0-19.38-0.38"},{"rate":0.8263913597826054,"trial_type":"html-keyboard-response","trial_index":101,"time_elapsed":1112995,"internal_node_id":"0.0-19.38-1.38"},{"rt":null,"stimulus":"<div style=\"background-color:#6dce98\"><h1 style=\"background-color:MediumSeaGreen\" >You won a prize! Well done!</h1><div style=\"background-color:#6dce98\"><h1 style=\"background-color:MediumSeaGreen\" >Only 1 left to go!</h1><img id=\"box\" src=\"img/prizes/yoyo.png\"></img><img id=\"box\" src=\"img/empty/redopenbox.png\"></img></div>","key_press":null,"trial_type":"html-keyboard-response","trial_index":101,"time_elapsed":1114509,"internal_node_id":"0.0-19.38-1.38"},{"rt":521.964999999851,"stimulus":"<p>Choose a box,</p>","button_pressed":2,"trial_type":"html-button-response","trial_index":102,"time_elapsed":1115035,"internal_node_id":"0.0-19.39-0.39"},{"rate":0.6863822224227691,"trial_type":"html-keyboard-response","trial_index":103,"time_elapsed":1115035,"internal_node_id":"0.0-19.39-1.39"},{"rt":null,"stimulus":"<div style=\"background-color:#ff7157\"><h1 style=\"background-color:Tomato\">Bad luck! There was no prize in the box!</h1><h1 style=\"background-color:Tomato\">Remember, you need to keep going until you have 20 prizes!</h1><img id=\"box\" src=\"img/sad/purpleopenboxsadthumb.png\"></img></div>","key_press":null,"trial_type":"html-keyboard-response","trial_index":103,"time_elapsed":1116541,"internal_node_id":"0.0-19.39-1.39"},{"rt":810.7399999990594,"stimulus":"<p>Choose a box,</p>","button_pressed":3,"trial_type":"html-button-response","trial_index":104,"time_elapsed":1117356,"internal_node_id":"0.0-19.40-0.40"},{"rate":0.8263913597826054,"trial_type":"html-keyboard-response","trial_index":105,"time_elapsed":1117356,"internal_node_id":"0.0-19.40-1.40"},{"rt":null,"stimulus":"<div style=\"background-color:#6dce98\"><h1 style=\"background-color:MediumSeaGreen\" >You won a prize! Well done!</h1><div style=\"background-color:#6dce98\"><h1 style=\"background-color:MediumSeaGreen\" >Only 0 left to go!</h1><img id=\"box\" src=\"img/prizes/lolipop.png\"></img><img id=\"box\" src=\"img/empty/redopenbox.png\"></img></div>","key_press":null,"trial_type":"html-keyboard-response","trial_index":105,"time_elapsed":1118862,"internal_node_id":"0.0-19.40-1.40"},{"rt":142080.7050000003,"responses":"{\"Q0\":\"Not sure what to think\",\"Q1\":\"Random at the very first and then changing to counting how many times where needed for each one until getting a prize.\"}","trial_type":"survey-text","trial_index":106,"time_elapsed":1260958,"internal_node_id":"0.0-20.0"}]