[{"view_history":"[{\"page_index\":0,\"viewing_time\":6062.599999830127},{\"page_index\":1,\"viewing_time\":2385.265000164509},{\"page_index\":2,\"viewing_time\":1142.7549999207258},{\"page_index\":3,\"viewing_time\":1052.7349999174476},{\"page_index\":4,\"viewing_time\":2051.3300001621246},{\"page_index\":5,\"viewing_time\":1001.9449999090284}]","rt":13697.204999858513,"trial_type":"instructions","trial_index":0,"time_elapsed":13699,"internal_node_id":"0.0-0.0"},{"rt":13335.53500007838,"responses":"{\"Q0\":\"Yes\",\"Q1\":\"Yes\",\"Q2\":\"Yes\"}","question_order":"[0,1,2]","trial_type":"survey-multi-choice","trial_index":1,"time_elapsed":27036,"internal_node_id":"0.0-1.0-0.0"},{"rt":8673.275000182912,"responses":"{\"Q0\":\"Yes\",\"Q1\":\"Yes\",\"Q2\":\"Yes\"}","question_order":"[0,1,2]","trial_type":"survey-multi-choice","trial_index":2,"time_elapsed":35712,"internal_node_id":"0.0-2.0-0.0"},{"rt":6372.0450000837445,"responses":"{\"Q0\":\"5fcf42b0dbf15125b451f482\"}","trial_type":"survey-text","trial_index":3,"time_elapsed":42088,"internal_node_id":"0.0-3.0"},{"rt":3123.3949998859316,"responses":"{\"Q0\":\"Male\",\"Q1\":\"18-25\"}","question_order":"[0,1]","trial_type":"survey-multi-choice","trial_index":4,"time_elapsed":45212,"internal_node_id":"0.0-4.0"},{"rt":3724.4900001678616,"responses":"{\"Q0\":\"\"}","trial_type":"survey-text","trial_index":5,"time_elapsed":48940,"internal_node_id":"0.0-5.0"},{"view_history":"[{\"page_index\":0,\"viewing_time\":2999.4449999649078}]","rt":2999.5750000234693,"trial_type":"instructions","trial_index":6,"time_elapsed":51940,"internal_node_id":"0.0-6.0"},{"rt":12560.534999938682,"responses":"{\"Interested\":2,\"Distressed\":3,\"Excited\":4,\"Upset\":4}","question_order":"[0,1,2,3]","trial_type":"survey-likert","trial_index":7,"time_elapsed":64502,"internal_node_id":"0.0-7.0"},{"rt":13169.260000111535,"responses":"{\"Strong\":2,\"Guilty\":1,\"Scared\":0,\"Hostile\":0}","question_order":"[0,1,2,3]","trial_type":"survey-likert","trial_index":8,"time_elapsed":77674,"internal_node_id":"0.0-8.0"},{"rt":9626.474999822676,"responses":"{\"Enthusiastic\":4,\"Proud\":1,\"Irritable\":4,\"Alert\":1}","question_order":"[0,1,2,3]","trial_type":"survey-likert","trial_index":9,"time_elapsed":87303,"internal_node_id":"0.0-9.0"},{"rt":9033.58000004664,"responses":"{\"Ashamed\":3,\"Inspired\":3,\"Nervous\":4,\"Determined\":3}","question_order":"[0,1,2,3]","trial_type":"survey-likert","trial_index":10,"time_elapsed":96339,"internal_node_id":"0.0-10.0"},{"rt":8380.469999974594,"responses":"{\"Attentive\":3,\"Jittery\":3,\"Active\":2,\"Afraid\":0}","question_order":"[0,1,2,3]","trial_type":"survey-likert","trial_index":11,"time_elapsed":104722,"internal_node_id":"0.0-11.0"},{"rt":22055.32499984838,"responses":"{\"Q0\":3,\"Q1\":2,\"Q2\":0,\"Q3\":3}","question_order":"[0,1,2,3]","trial_type":"survey-likert","trial_index":12,"time_elapsed":126780,"internal_node_id":"0.0-12.0"},{"rt":18593.62000017427,"responses":"{\"Q0\":3,\"Q1\":3,\"Q2\":3,\"Q3\":0}","question_order":"[0,1,2,3]","trial_type":"survey-likert","trial_index":13,"time_elapsed":145376,"internal_node_id":"0.0-13.0"},{"rt":9674.56499999389,"responses":"{\"Q0\":2,\"Q1\":3,\"Q2\":3,\"Q3\":1}","question_order":"[0,1,2,3]","trial_type":"survey-likert","trial_index":14,"time_elapsed":155053,"internal_node_id":"0.0-14.0"},{"rt":7611.4100001286715,"responses":"{\"Q0\":0,\"Q1\":2,\"Q2\":1}","question_order":"[0,1,2]","trial_type":"survey-likert","trial_index":15,"time_elapsed":162667,"internal_node_id":"0.0-15.0"},{"view_history":"[{\"page_index\":0,\"viewing_time\":2422.7200001478195},{\"page_index\":1,\"viewing_time\":5918.219999875873},{\"page_index\":2,\"viewing_time\":5642.63500017114}]","rt":13983.980000019073,"trial_type":"instructions","trial_index":16,"time_elapsed":176655,"internal_node_id":"0.0-16.0"},{"rt":2920.7449997775257,"stimulus":"<p>Choose a box,</p>","button_pressed":2,"trial_type":"html-button-response","trial_index":17,"time_elapsed":179576,"internal_node_id":"0.0-17.0-0.0"},{"rate":0.180975708988464,"trial_type":"html-keyboard-response","trial_index":18,"time_elapsed":179576,"internal_node_id":"0.0-17.0-1.0"},{"rt":null,"stimulus":"<div style=\"background-color:#6dce98\"><h1 style=\"background-color:MediumSeaGreen\" >You won a prize! Well done!</h1><div style=\"background-color:#6dce98\"><h1 style=\"background-color:MediumSeaGreen\" >Only 19 left to go!</h1><img id=\"box\" src=\"img/prizes/lolipop.png\"></img><img id=\"box\" src=\"img/empty/purpleopenbox.png\"></img></div>","key_press":null,"trial_type":"html-keyboard-response","trial_index":18,"time_elapsed":181077,"internal_node_id":"0.0-17.0-1.0"},{"rt":1238.7300000991672,"stimulus":"<p>Choose a box,</p>","button_pressed":1,"trial_type":"html-button-response","trial_index":19,"time_elapsed":182317,"internal_node_id":"0.0-17.0-0.1"},{"rate":0.418687011685466,"trial_type":"html-keyboard-response","trial_index":20,"time_elapsed":182317,"internal_node_id":"0.0-17.0-1.1"},{"rt":null,"stimulus":"<div style=\"background-color:#6dce98\"><h1 style=\"background-color:MediumSeaGreen\" >You won a prize! Well done!</h1><div style=\"background-color:#6dce98\"><h1 style=\"background-color:MediumSeaGreen\" >Only 18 left to go!</h1><img id=\"box\" src=\"img/prizes/duck.png\"></img><img id=\"box\" src=\"img/empty/greenopenbox.png\"></img></div>","key_press":null,"trial_type":"html-keyboard-response","trial_index":20,"time_elapsed":183818,"internal_node_id":"0.0-17.0-1.1"},{"rt":1095.424999948591,"stimulus":"<p>Choose a box,</p>","button_pressed":3,"trial_type":"html-button-response","trial_index":21,"time_elapsed":184915,"internal_node_id":"0.0-17.0-0.2"},{"rate":0.28818308220317884,"trial_type":"html-keyboard-response","trial_index":22,"time_elapsed":184915,"internal_node_id":"0.0-17.0-1.2"},{"rt":null,"stimulus":"<div style=\"background-color:#ff7157\"><h1 style=\"background-color:Tomato\">Bad luck! There was no prize in the box!</h1><h1 style=\"background-color:Tomato\">Remember, you need to keep going until you have 20 prizes!</h1><img id=\"box\" src=\"img/sad/redopenboxsadthumb.png\"></img></div>","key_press":null,"trial_type":"html-keyboard-response","trial_index":22,"time_elapsed":186417,"internal_node_id":"0.0-17.0-1.2"},{"view_history":"[{\"page_index\":0,\"viewing_time\":2670.3799997922033}]","rt":2670.539999846369,"trial_type":"instructions","trial_index":23,"time_elapsed":189088,"internal_node_id":"0.0-18.0"},{"rt":1181.2100000679493,"stimulus":"<p>Choose a box,</p>","button_pressed":1,"trial_type":"html-button-response","trial_index":24,"time_elapsed":190270,"internal_node_id":"0.0-19.0-0.0"},{"rate":0.3116004849431702,"trial_type":"html-keyboard-response","trial_index":25,"time_elapsed":190270,"internal_node_id":"0.0-19.0-1.0"},{"rt":null,"stimulus":"<div style=\"background-color:#ff7157\"><h1 style=\"background-color:Tomato\">Bad luck! There was no prize in the box!</h1><h1 style=\"background-color:Tomato\">Remember, you need to keep going until you have 20 prizes!</h1><img id=\"box\" src=\"img/sad/greenopenboxsadthumb.png\"></img></div>","key_press":null,"trial_type":"html-keyboard-response","trial_index":25,"time_elapsed":191771,"internal_node_id":"0.0-19.0-1.0"},{"rt":234.45999994874,"stimulus":"<p>Choose a box,</p>","button_pressed":1,"trial_type":"html-button-response","trial_index":26,"time_elapsed":192007,"internal_node_id":"0.0-19.1-0.1"},{"rate":0.3116004849431702,"trial_type":"html-keyboard-response","trial_index":27,"time_elapsed":192007,"internal_node_id":"0.0-19.1-1.1"},{"rt":null,"stimulus":"<div style=\"background-color:#ff7157\"><h1 style=\"background-color:Tomato\">Bad luck! There was no prize in the box!</h1><h1 style=\"background-color:Tomato\">Remember, you need to keep going until you have 20 prizes!</h1><img id=\"box\" src=\"img/sad/greenopenboxsadthumb.png\"></img></div>","key_press":null,"trial_type":"html-keyboard-response","trial_index":27,"time_elapsed":193509,"internal_node_id":"0.0-19.1-1.1"},{"rt":480.1799999549985,"stimulus":"<p>Choose a box,</p>","button_pressed":2,"trial_type":"html-button-response","trial_index":28,"time_elapsed":193990,"internal_node_id":"0.0-19.2-0.2"},{"rate":0.7431191119091004,"trial_type":"html-keyboard-response","trial_index":29,"time_elapsed":193990,"internal_node_id":"0.0-19.2-1.2"},{"rt":null,"stimulus":"<div style=\"background-color:#6dce98\"><h1 style=\"background-color:MediumSeaGreen\" >You won a prize! Well done!</h1><div style=\"background-color:#6dce98\"><h1 style=\"background-color:MediumSeaGreen\" >Only 19 left to go!</h1><img id=\"box\" src=\"img/prizes/bear.png\"></img><img id=\"box\" src=\"img/empty/purpleopenbox.png\"></img></div>","key_press":null,"trial_type":"html-keyboard-response","trial_index":29,"time_elapsed":195491,"internal_node_id":"0.0-19.2-1.2"},{"rt":469.3500001449138,"stimulus":"<p>Choose a box,</p>","button_pressed":2,"trial_type":"html-button-response","trial_index":30,"time_elapsed":195961,"internal_node_id":"0.0-19.3-0.3"},{"rate":0.7431191119091004,"trial_type":"html-keyboard-response","trial_index":31,"time_elapsed":195961,"internal_node_id":"0.0-19.3-1.3"},{"rt":null,"stimulus":"<div style=\"background-color:#6dce98\"><h1 style=\"background-color:MediumSeaGreen\" >You won a prize! Well done!</h1><div style=\"background-color:#6dce98\"><h1 style=\"background-color:MediumSeaGreen\" >Only 18 left to go!</h1><img id=\"box\" src=\"img/prizes/choc.png\"></img><img id=\"box\" src=\"img/empty/purpleopenbox.png\"></img></div>","key_press":null,"trial_type":"html-keyboard-response","trial_index":31,"time_elapsed":197462,"internal_node_id":"0.0-19.3-1.3"},{"rt":701.680000172928,"stimulus":"<p>Choose a box,</p>","button_pressed":3,"trial_type":"html-button-response","trial_index":32,"time_elapsed":198165,"internal_node_id":"0.0-19.4-0.4"},{"rate":0.9623717846422934,"trial_type":"html-keyboard-response","trial_index":33,"time_elapsed":198165,"internal_node_id":"0.0-19.4-1.4"},{"rt":null,"stimulus":"<div style=\"background-color:#6dce98\"><h1 style=\"background-color:MediumSeaGreen\" >You won a prize! Well done!</h1><div style=\"background-color:#6dce98\"><h1 style=\"background-color:MediumSeaGreen\" >Only 17 left to go!</h1><img id=\"box\" src=\"img/prizes/lolipop.png\"></img><img id=\"box\" src=\"img/empty/redopenbox.png\"></img></div>","key_press":null,"trial_type":"html-keyboard-response","trial_index":33,"time_elapsed":199666,"internal_node_id":"0.0-19.4-1.4"},{"rt":975.6199999246746,"stimulus":"<p>Choose a box,</p>","button_pressed":2,"trial_type":"html-button-response","trial_index":34,"time_elapsed":200643,"internal_node_id":"0.0-19.5-0.5"},{"rate":0.7431191119091004,"trial_type":"html-keyboard-response","trial_index":35,"time_elapsed":200643,"internal_node_id":"0.0-19.5-1.5"},{"rt":null,"stimulus":"<div style=\"background-color:#ff7157\"><h1 style=\"background-color:Tomato\">Bad luck! There was no prize in the box!</h1><h1 style=\"background-color:Tomato\">Remember, you need to keep going until you have 20 prizes!</h1><img id=\"box\" src=\"img/sad/purpleopenboxsadthumb.png\"></img></div>","key_press":null,"trial_type":"html-keyboard-response","trial_index":35,"time_elapsed":202143,"internal_node_id":"0.0-19.5-1.5"},{"rt":879.6149999834597,"stimulus":"<p>Choose a box,</p>","button_pressed":1,"trial_type":"html-button-response","trial_index":36,"time_elapsed":203024,"internal_node_id":"0.0-19.6-0.6"},{"rate":0.3116004849431702,"trial_type":"html-keyboard-response","trial_index":37,"time_elapsed":203024,"internal_node_id":"0.0-19.6-1.6"},{"rt":null,"stimulus":"<div style=\"background-color:#6dce98\"><h1 style=\"background-color:MediumSeaGreen\" >You won a prize! Well done!</h1><div style=\"background-color:#6dce98\"><h1 style=\"background-color:MediumSeaGreen\" >Only 16 left to go!</h1><img id=\"box\" src=\"img/prizes/ring.png\"></img><img id=\"box\" src=\"img/empty/greenopenbox.png\"></img></div>","key_press":null,"trial_type":"html-keyboard-response","trial_index":37,"time_elapsed":204526,"internal_node_id":"0.0-19.6-1.6"},{"rt":1387.1150000486523,"stimulus":"<p>Choose a box,</p>","button_pressed":0,"trial_type":"html-button-response","trial_index":38,"time_elapsed":205914,"internal_node_id":"0.0-19.7-0.7"},{"rate":0.0398979528229056,"trial_type":"html-keyboard-response","trial_index":39,"time_elapsed":205914,"internal_node_id":"0.0-19.7-1.7"},{"rt":null,"stimulus":"<div style=\"background-color:#ff7157\"><h1 style=\"background-color:Tomato\">Bad luck! There was no prize in the box!</h1><h1 style=\"background-color:Tomato\">Remember, you need to keep going until you have 20 prizes!</h1><img id=\"box\" src=\"img/sad/blueopenboxsadthumb.png\"></img></div>","key_press":null,"trial_type":"html-keyboard-response","trial_index":39,"time_elapsed":207415,"internal_node_id":"0.0-19.7-1.7"},{"rt":1348.4650000464171,"stimulus":"<p>Choose a box,</p>","button_pressed":1,"trial_type":"html-button-response","trial_index":40,"time_elapsed":208764,"internal_node_id":"0.0-19.8-0.8"},{"rate":0.3116004849431702,"trial_type":"html-keyboard-response","trial_index":41,"time_elapsed":208764,"internal_node_id":"0.0-19.8-1.8"},{"rt":null,"stimulus":"<div style=\"background-color:#ff7157\"><h1 style=\"background-color:Tomato\">Bad luck! There was no prize in the box!</h1><h1 style=\"background-color:Tomato\">Remember, you need to keep going until you have 20 prizes!</h1><img id=\"box\" src=\"img/sad/greenopenboxsadthumb.png\"></img></div>","key_press":null,"trial_type":"html-keyboard-response","trial_index":41,"time_elapsed":210265,"internal_node_id":"0.0-19.8-1.8"},{"rt":1334.885000018403,"stimulus":"<p>Choose a box,</p>","button_pressed":0,"trial_type":"html-button-response","trial_index":42,"time_elapsed":211601,"internal_node_id":"0.0-19.9-0.9"},{"rate":0.0398979528229056,"trial_type":"html-keyboard-response","trial_index":43,"time_elapsed":211601,"internal_node_id":"0.0-19.9-1.9"},{"rt":null,"stimulus":"<div style=\"background-color:#ff7157\"><h1 style=\"background-color:Tomato\">Bad luck! There was no prize in the box!</h1><h1 style=\"background-color:Tomato\">Remember, you need to keep going until you have 20 prizes!</h1><img id=\"box\" src=\"img/sad/blueopenboxsadthumb.png\"></img></div>","key_press":null,"trial_type":"html-keyboard-response","trial_index":43,"time_elapsed":213102,"internal_node_id":"0.0-19.9-1.9"},{"rt":1063.164999941364,"stimulus":"<p>Choose a box,</p>","button_pressed":3,"trial_type":"html-button-response","trial_index":44,"time_elapsed":214166,"internal_node_id":"0.0-19.10-0.10"},{"rate":0.9623717846422934,"trial_type":"html-keyboard-response","trial_index":45,"time_elapsed":214166,"internal_node_id":"0.0-19.10-1.10"},{"rt":null,"stimulus":"<div style=\"background-color:#6dce98\"><h1 style=\"background-color:MediumSeaGreen\" >You won a prize! Well done!</h1><div style=\"background-color:#6dce98\"><h1 style=\"background-color:MediumSeaGreen\" >Only 15 left to go!</h1><img id=\"box\" src=\"img/prizes/duck.png\"></img><img id=\"box\" src=\"img/empty/redopenbox.png\"></img></div>","key_press":null,"trial_type":"html-keyboard-response","trial_index":45,"time_elapsed":215667,"internal_node_id":"0.0-19.10-1.10"},{"rt":1049.7550000436604,"stimulus":"<p>Choose a box,</p>","button_pressed":3,"trial_type":"html-button-response","trial_index":46,"time_elapsed":216718,"internal_node_id":"0.0-19.11-0.11"},{"rate":0.9623717846422934,"trial_type":"html-keyboard-response","trial_index":47,"time_elapsed":216718,"internal_node_id":"0.0-19.11-1.11"},{"rt":null,"stimulus":"<div style=\"background-color:#6dce98\"><h1 style=\"background-color:MediumSeaGreen\" >You won a prize! Well done!</h1><div style=\"background-color:#6dce98\"><h1 style=\"background-color:MediumSeaGreen\" >Only 14 left to go!</h1><img id=\"box\" src=\"img/prizes/duck.png\"></img><img id=\"box\" src=\"img/empty/redopenbox.png\"></img></div>","key_press":null,"trial_type":"html-keyboard-response","trial_index":47,"time_elapsed":218219,"internal_node_id":"0.0-19.11-1.11"},{"rt":443.04999988526106,"stimulus":"<p>Choose a box,</p>","button_pressed":3,"trial_type":"html-button-response","trial_index":48,"time_elapsed":218663,"internal_node_id":"0.0-19.12-0.12"},{"rate":0.9623717846422934,"trial_type":"html-keyboard-response","trial_index":49,"time_elapsed":218663,"internal_node_id":"0.0-19.12-1.12"},{"rt":null,"stimulus":"<div style=\"background-color:#6dce98\"><h1 style=\"background-color:MediumSeaGreen\" >You won a prize! Well done!</h1><div style=\"background-color:#6dce98\"><h1 style=\"background-color:MediumSeaGreen\" >Only 13 left to go!</h1><img id=\"box\" src=\"img/prizes/ring.png\"></img><img id=\"box\" src=\"img/empty/redopenbox.png\"></img></div>","key_press":null,"trial_type":"html-keyboard-response","trial_index":49,"time_elapsed":220164,"internal_node_id":"0.0-19.12-1.12"},{"rt":654.5699997805059,"stimulus":"<p>Choose a box,</p>","button_pressed":0,"trial_type":"html-button-response","trial_index":50,"time_elapsed":220820,"internal_node_id":"0.0-19.13-0.13"},{"rate":0.0398979528229056,"trial_type":"html-keyboard-response","trial_index":51,"time_elapsed":220820,"internal_node_id":"0.0-19.13-1.13"},{"rt":null,"stimulus":"<div style=\"background-color:#6dce98\"><h1 style=\"background-color:MediumSeaGreen\" >You won a prize! Well done!</h1><div style=\"background-color:#6dce98\"><h1 style=\"background-color:MediumSeaGreen\" >Only 12 left to go!</h1><img id=\"box\" src=\"img/prizes/ring.png\"></img><img id=\"box\" src=\"img/empty/blueopenbox.png\"></img></div>","key_press":null,"trial_type":"html-keyboard-response","trial_index":51,"time_elapsed":222322,"internal_node_id":"0.0-19.13-1.13"},{"rt":351.05499997735023,"stimulus":"<p>Choose a box,</p>","button_pressed":0,"trial_type":"html-button-response","trial_index":52,"time_elapsed":222674,"internal_node_id":"0.0-19.14-0.14"},{"rate":0.0398979528229056,"trial_type":"html-keyboard-response","trial_index":53,"time_elapsed":222674,"internal_node_id":"0.0-19.14-1.14"},{"rt":null,"stimulus":"<div style=\"background-color:#6dce98\"><h1 style=\"background-color:MediumSeaGreen\" >You won a prize! Well done!</h1><div style=\"background-color:#6dce98\"><h1 style=\"background-color:MediumSeaGreen\" >Only 11 left to go!</h1><img id=\"box\" src=\"img/prizes/ring.png\"></img><img id=\"box\" src=\"img/empty/blueopenbox.png\"></img></div>","key_press":null,"trial_type":"html-keyboard-response","trial_index":53,"time_elapsed":224176,"internal_node_id":"0.0-19.14-1.14"},{"rt":314.49999986216426,"stimulus":"<p>Choose a box,</p>","button_pressed":0,"trial_type":"html-button-response","trial_index":54,"time_elapsed":224492,"internal_node_id":"0.0-19.15-0.15"},{"rate":0.0398979528229056,"trial_type":"html-keyboard-response","trial_index":55,"time_elapsed":224492,"internal_node_id":"0.0-19.15-1.15"},{"rt":null,"stimulus":"<div style=\"background-color:#ff7157\"><h1 style=\"background-color:Tomato\">Bad luck! There was no prize in the box!</h1><h1 style=\"background-color:Tomato\">Remember, you need to keep going until you have 20 prizes!</h1><img id=\"box\" src=\"img/sad/blueopenboxsadthumb.png\"></img></div>","key_press":null,"trial_type":"html-keyboard-response","trial_index":55,"time_elapsed":225993,"internal_node_id":"0.0-19.15-1.15"},{"rt":237.14999994263053,"stimulus":"<p>Choose a box,</p>","button_pressed":2,"trial_type":"html-button-response","trial_index":56,"time_elapsed":226231,"internal_node_id":"0.0-19.16-0.16"},{"rate":0.7431191119091004,"trial_type":"html-keyboard-response","trial_index":57,"time_elapsed":226231,"internal_node_id":"0.0-19.16-1.16"},{"rt":null,"stimulus":"<div style=\"background-color:#6dce98\"><h1 style=\"background-color:MediumSeaGreen\" >You won a prize! Well done!</h1><div style=\"background-color:#6dce98\"><h1 style=\"background-color:MediumSeaGreen\" >Only 10 left to go!</h1><img id=\"box\" src=\"img/prizes/yoyo.png\"></img><img id=\"box\" src=\"img/empty/purpleopenbox.png\"></img></div>","key_press":null,"trial_type":"html-keyboard-response","trial_index":57,"time_elapsed":227732,"internal_node_id":"0.0-19.16-1.16"},{"rt":1272.815000033006,"stimulus":"<p>Choose a box,</p>","button_pressed":3,"trial_type":"html-button-response","trial_index":58,"time_elapsed":229006,"internal_node_id":"0.0-19.17-0.17"},{"rate":0.9623717846422934,"trial_type":"html-keyboard-response","trial_index":59,"time_elapsed":229006,"internal_node_id":"0.0-19.17-1.17"},{"rt":null,"stimulus":"<div style=\"background-color:#6dce98\"><h1 style=\"background-color:MediumSeaGreen\" >You won a prize! Well done!</h1><div style=\"background-color:#6dce98\"><h1 style=\"background-color:MediumSeaGreen\" >Only 9 left to go!</h1><img id=\"box\" src=\"img/prizes/bear.png\"></img><img id=\"box\" src=\"img/empty/redopenbox.png\"></img></div>","key_press":null,"trial_type":"html-keyboard-response","trial_index":59,"time_elapsed":230508,"internal_node_id":"0.0-19.17-1.17"},{"rt":599.1950000170618,"stimulus":"<p>Choose a box,</p>","button_pressed":2,"trial_type":"html-button-response","trial_index":60,"time_elapsed":231108,"internal_node_id":"0.0-19.18-0.18"},{"rate":0.7431191119091004,"trial_type":"html-keyboard-response","trial_index":61,"time_elapsed":231108,"internal_node_id":"0.0-19.18-1.18"},{"rt":null,"stimulus":"<div style=\"background-color:#ff7157\"><h1 style=\"background-color:Tomato\">Bad luck! There was no prize in the box!</h1><h1 style=\"background-color:Tomato\">Remember, you need to keep going until you have 20 prizes!</h1><img id=\"box\" src=\"img/sad/purpleopenboxsadthumb.png\"></img></div>","key_press":null,"trial_type":"html-keyboard-response","trial_index":61,"time_elapsed":232610,"internal_node_id":"0.0-19.18-1.18"},{"rt":199.0200001746416,"stimulus":"<p>Choose a box,</p>","button_pressed":2,"trial_type":"html-button-response","trial_index":62,"time_elapsed":232810,"internal_node_id":"0.0-19.19-0.19"},{"rate":0.7431191119091004,"trial_type":"html-keyboard-response","trial_index":63,"time_elapsed":232810,"internal_node_id":"0.0-19.19-1.19"},{"rt":null,"stimulus":"<div style=\"background-color:#6dce98\"><h1 style=\"background-color:MediumSeaGreen\" >You won a prize! Well done!</h1><div style=\"background-color:#6dce98\"><h1 style=\"background-color:MediumSeaGreen\" >Only 8 left to go!</h1><img id=\"box\" src=\"img/prizes/coins.png\"></img><img id=\"box\" src=\"img/empty/purpleopenbox.png\"></img></div>","key_press":null,"trial_type":"html-keyboard-response","trial_index":63,"time_elapsed":234311,"internal_node_id":"0.0-19.19-1.19"},{"rt":171.93499999120831,"stimulus":"<p>Choose a box,</p>","button_pressed":2,"trial_type":"html-button-response","trial_index":64,"time_elapsed":234484,"internal_node_id":"0.0-19.20-0.20"},{"rate":0.7431191119091004,"trial_type":"html-keyboard-response","trial_index":65,"time_elapsed":234484,"internal_node_id":"0.0-19.20-1.20"},{"rt":null,"stimulus":"<div style=\"background-color:#ff7157\"><h1 style=\"background-color:Tomato\">Bad luck! There was no prize in the box!</h1><h1 style=\"background-color:Tomato\">Remember, you need to keep going until you have 20 prizes!</h1><img id=\"box\" src=\"img/sad/purpleopenboxsadthumb.png\"></img></div>","key_press":null,"trial_type":"html-keyboard-response","trial_index":65,"time_elapsed":235985,"internal_node_id":"0.0-19.20-1.20"},{"rt":131.7349998280406,"stimulus":"<p>Choose a box,</p>","button_pressed":1,"trial_type":"html-button-response","trial_index":66,"time_elapsed":236118,"internal_node_id":"0.0-19.21-0.21"},{"rate":0.3116004849431702,"trial_type":"html-keyboard-response","trial_index":67,"time_elapsed":236118,"internal_node_id":"0.0-19.21-1.21"},{"rt":null,"stimulus":"<div style=\"background-color:#ff7157\"><h1 style=\"background-color:Tomato\">Bad luck! There was no prize in the box!</h1><h1 style=\"background-color:Tomato\">Remember, you need to keep going until you have 20 prizes!</h1><img id=\"box\" src=\"img/sad/greenopenboxsadthumb.png\"></img></div>","key_press":null,"trial_type":"html-keyboard-response","trial_index":67,"time_elapsed":237619,"internal_node_id":"0.0-19.21-1.21"},{"rt":835.8899999875575,"stimulus":"<p>Choose a box,</p>","button_pressed":3,"trial_type":"html-button-response","trial_index":68,"time_elapsed":238456,"internal_node_id":"0.0-19.22-0.22"},{"rate":0.9623717846422934,"trial_type":"html-keyboard-response","trial_index":69,"time_elapsed":238456,"internal_node_id":"0.0-19.22-1.22"},{"rt":null,"stimulus":"<div style=\"background-color:#6dce98\"><h1 style=\"background-color:MediumSeaGreen\" >You won a prize! Well done!</h1><div style=\"background-color:#6dce98\"><h1 style=\"background-color:MediumSeaGreen\" >Only 7 left to go!</h1><img id=\"box\" src=\"img/prizes/yoyo.png\"></img><img id=\"box\" src=\"img/empty/redopenbox.png\"></img></div>","key_press":null,"trial_type":"html-keyboard-response","trial_index":69,"time_elapsed":239958,"internal_node_id":"0.0-19.22-1.22"},{"rt":197.114999871701,"stimulus":"<p>Choose a box,</p>","button_pressed":2,"trial_type":"html-button-response","trial_index":70,"time_elapsed":240156,"internal_node_id":"0.0-19.23-0.23"},{"rate":0.7431191119091004,"trial_type":"html-keyboard-response","trial_index":71,"time_elapsed":240157,"internal_node_id":"0.0-19.23-1.23"},{"rt":null,"stimulus":"<div style=\"background-color:#6dce98\"><h1 style=\"background-color:MediumSeaGreen\" >You won a prize! Well done!</h1><div style=\"background-color:#6dce98\"><h1 style=\"background-color:MediumSeaGreen\" >Only 6 left to go!</h1><img id=\"box\" src=\"img/prizes/beachball.png\"></img><img id=\"box\" src=\"img/empty/purpleopenbox.png\"></img></div>","key_press":null,"trial_type":"html-keyboard-response","trial_index":71,"time_elapsed":241658,"internal_node_id":"0.0-19.23-1.23"},{"rt":512.9050000105053,"stimulus":"<p>Choose a box,</p>","button_pressed":3,"trial_type":"html-button-response","trial_index":72,"time_elapsed":242172,"internal_node_id":"0.0-19.24-0.24"},{"rate":0.9623717846422934,"trial_type":"html-keyboard-response","trial_index":73,"time_elapsed":242172,"internal_node_id":"0.0-19.24-1.24"},{"rt":null,"stimulus":"<div style=\"background-color:#6dce98\"><h1 style=\"background-color:MediumSeaGreen\" >You won a prize! Well done!</h1><div style=\"background-color:#6dce98\"><h1 style=\"background-color:MediumSeaGreen\" >Only 5 left to go!</h1><img id=\"box\" src=\"img/prizes/yoyo.png\"></img><img id=\"box\" src=\"img/empty/redopenbox.png\"></img></div>","key_press":null,"trial_type":"html-keyboard-response","trial_index":73,"time_elapsed":243673,"internal_node_id":"0.0-19.24-1.24"},{"rt":238.57500008307397,"stimulus":"<p>Choose a box,</p>","button_pressed":2,"trial_type":"html-button-response","trial_index":74,"time_elapsed":243912,"internal_node_id":"0.0-19.25-0.25"},{"rate":0.7431191119091004,"trial_type":"html-keyboard-response","trial_index":75,"time_elapsed":243912,"internal_node_id":"0.0-19.25-1.25"},{"rt":null,"stimulus":"<div style=\"background-color:#6dce98\"><h1 style=\"background-color:MediumSeaGreen\" >You won a prize! Well done!</h1><div style=\"background-color:#6dce98\"><h1 style=\"background-color:MediumSeaGreen\" >Only 4 left to go!</h1><img id=\"box\" src=\"img/prizes/lolipop.png\"></img><img id=\"box\" src=\"img/empty/purpleopenbox.png\"></img></div>","key_press":null,"trial_type":"html-keyboard-response","trial_index":75,"time_elapsed":245413,"internal_node_id":"0.0-19.25-1.25"},{"rt":798.7500000745058,"stimulus":"<p>Choose a box,</p>","button_pressed":3,"trial_type":"html-button-response","trial_index":76,"time_elapsed":246213,"internal_node_id":"0.0-19.26-0.26"},{"rate":0.9623717846422934,"trial_type":"html-keyboard-response","trial_index":77,"time_elapsed":246213,"internal_node_id":"0.0-19.26-1.26"},{"rt":null,"stimulus":"<div style=\"background-color:#6dce98\"><h1 style=\"background-color:MediumSeaGreen\" >You won a prize! Well done!</h1><div style=\"background-color:#6dce98\"><h1 style=\"background-color:MediumSeaGreen\" >Only 3 left to go!</h1><img id=\"box\" src=\"img/prizes/ring.png\"></img><img id=\"box\" src=\"img/empty/redopenbox.png\"></img></div>","key_press":null,"trial_type":"html-keyboard-response","trial_index":77,"time_elapsed":247714,"internal_node_id":"0.0-19.26-1.26"},{"rt":491.94000009447336,"stimulus":"<p>Choose a box,</p>","button_pressed":2,"trial_type":"html-button-response","trial_index":78,"time_elapsed":248207,"internal_node_id":"0.0-19.27-0.27"},{"rate":0.7431191119091004,"trial_type":"html-keyboard-response","trial_index":79,"time_elapsed":248207,"internal_node_id":"0.0-19.27-1.27"},{"rt":null,"stimulus":"<div style=\"background-color:#6dce98\"><h1 style=\"background-color:MediumSeaGreen\" >You won a prize! Well done!</h1><div style=\"background-color:#6dce98\"><h1 style=\"background-color:MediumSeaGreen\" >Only 2 left to go!</h1><img id=\"box\" src=\"img/prizes/choc.png\"></img><img id=\"box\" src=\"img/empty/purpleopenbox.png\"></img></div>","key_press":null,"trial_type":"html-keyboard-response","trial_index":79,"time_elapsed":249709,"internal_node_id":"0.0-19.27-1.27"},{"rt":390.29500004835427,"stimulus":"<p>Choose a box,</p>","button_pressed":3,"trial_type":"html-button-response","trial_index":80,"time_elapsed":250100,"internal_node_id":"0.0-19.28-0.28"},{"rate":0.9623717846422934,"trial_type":"html-keyboard-response","trial_index":81,"time_elapsed":250100,"internal_node_id":"0.0-19.28-1.28"},{"rt":null,"stimulus":"<div style=\"background-color:#6dce98\"><h1 style=\"background-color:MediumSeaGreen\" >You won a prize! Well done!</h1><div style=\"background-color:#6dce98\"><h1 style=\"background-color:MediumSeaGreen\" >Only 1 left to go!</h1><img id=\"box\" src=\"img/prizes/duck.png\"></img><img id=\"box\" src=\"img/empty/redopenbox.png\"></img></div>","key_press":null,"trial_type":"html-keyboard-response","trial_index":81,"time_elapsed":251602,"internal_node_id":"0.0-19.28-1.28"},{"rt":121.37999990954995,"stimulus":"<p>Choose a box,</p>","button_pressed":2,"trial_type":"html-button-response","trial_index":82,"time_elapsed":251724,"internal_node_id":"0.0-19.29-0.29"},{"rate":0.7431191119091004,"trial_type":"html-keyboard-response","trial_index":83,"time_elapsed":251724,"internal_node_id":"0.0-19.29-1.29"},{"rt":null,"stimulus":"<div style=\"background-color:#6dce98\"><h1 style=\"background-color:MediumSeaGreen\" >You won a prize! Well done!</h1><div style=\"background-color:#6dce98\"><h1 style=\"background-color:MediumSeaGreen\" >Only 0 left to go!</h1><img id=\"box\" src=\"img/prizes/lolipop.png\"></img><img id=\"box\" src=\"img/empty/purpleopenbox.png\"></img></div>","key_press":null,"trial_type":"html-keyboard-response","trial_index":83,"time_elapsed":253226,"internal_node_id":"0.0-19.29-1.29"},{"rt":40335.08499991149,"responses":"{\"Q0\":\"I DONT REALLY KNOW WHTAS GONNA BE THE END RESULT, BUT IT WAS DEFINELTY A COLOR ASSOCIATION THING\",\"Q1\":\"AVOIDED THE LEFT ONES\"}","trial_type":"survey-text","trial_index":84,"time_elapsed":293565,"internal_node_id":"0.0-20.0"}]