[
    {
        "view_history": "[{\"page_index\":0,\"viewing_time\":11278.905000071973},{\"page_index\":1,\"viewing_time\":2071.4750001206994},{\"page_index\":2,\"viewing_time\":4583.719999995083},{\"page_index\":3,\"viewing_time\":2908.4799999836832},{\"page_index\":4,\"viewing_time\":1679.6949999406934},{\"page_index\":5,\"viewing_time\":1920.325000071898}]",
        "rt": 24443.800000008196,
        "trial_type": "instructions",
        "trial_index": 0,
        "time_elapsed": 24446,
        "internal_node_id": "0.0-0.0"
    },
    {
        "rt": 6450.574999907985,
        "responses": "{\"Q0\":\"Yes\",\"Q1\":\"Yes\",\"Q2\":\"Yes\"}",
        "question_order": "[0,1,2]",
        "trial_type": "survey-multi-choice",
        "trial_index": 1,
        "time_elapsed": 30899,
        "internal_node_id": "0.0-1.0-0.0"
    },
    {
        "rt": 5347.665000008419,
        "responses": "{\"Q0\":\"Yes\",\"Q1\":\"Yes\",\"Q2\":\"Yes\"}",
        "question_order": "[0,1,2]",
        "trial_type": "survey-multi-choice",
        "trial_index": 2,
        "time_elapsed": 36248,
        "internal_node_id": "0.0-2.0-0.0"
    },
    {
        "rt": 4289.199999999255,
        "responses": "{\"Q0\":\"5e2870dfa3d611039675e634\"}",
        "trial_type": "survey-text",
        "trial_index": 3,
        "time_elapsed": 40540,
        "internal_node_id": "0.0-3.0"
    },
    {
        "rt": 2867.2850001603365,
        "responses": "{\"Q0\":\"Female\",\"Q1\":\"18-25\"}",
        "question_order": "[0,1]",
        "trial_type": "survey-multi-choice",
        "trial_index": 4,
        "time_elapsed": 43409,
        "internal_node_id": "0.0-4.0"
    },
    {
        "rt": 5520.944999996573,
        "responses": "{\"Q0\":\"none\"}",
        "trial_type": "survey-text",
        "trial_index": 5,
        "time_elapsed": 48933,
        "internal_node_id": "0.0-5.0"
    },
    {
        "view_history": "[{\"page_index\":0,\"viewing_time\":1710.7199998572469}]",
        "rt": 1711.020000046119,
        "trial_type": "instructions",
        "trial_index": 6,
        "time_elapsed": 50644,
        "internal_node_id": "0.0-6.0"
    },
    {
        "rt": 13544.750000117347,
        "responses": "{\"Interested\":2,\"Distressed\":0,\"Excited\":1,\"Upset\":0}",
        "question_order": "[0,1,2,3]",
        "trial_type": "survey-likert",
        "trial_index": 7,
        "time_elapsed": 64192,
        "internal_node_id": "0.0-7.0"
    },
    {
        "rt": 10667.214999906719,
        "responses": "{\"Strong\":2,\"Guilty\":1,\"Scared\":0,\"Hostile\":0}",
        "question_order": "[0,1,2,3]",
        "trial_type": "survey-likert",
        "trial_index": 8,
        "time_elapsed": 74862,
        "internal_node_id": "0.0-8.0"
    },
    {
        "rt": 8464.889999944717,
        "responses": "{\"Enthusiastic\":3,\"Proud\":3,\"Irritable\":2,\"Alert\":2}",
        "question_order": "[0,1,2,3]",
        "trial_type": "survey-likert",
        "trial_index": 9,
        "time_elapsed": 83329,
        "internal_node_id": "0.0-9.0"
    },
    {
        "rt": 9118.714999873191,
        "responses": "{\"Ashamed\":2,\"Inspired\":3,\"Nervous\":3,\"Determined\":3}",
        "question_order": "[0,1,2,3]",
        "trial_type": "survey-likert",
        "trial_index": 10,
        "time_elapsed": 92450,
        "internal_node_id": "0.0-10.0"
    },
    {
        "rt": 7641.004999866709,
        "responses": "{\"Attentive\":3,\"Jittery\":1,\"Active\":1,\"Afraid\":0}",
        "question_order": "[0,1,2,3]",
        "trial_type": "survey-likert",
        "trial_index": 11,
        "time_elapsed": 100093,
        "internal_node_id": "0.0-11.0"
    },
    {
        "rt": 12799.739999929443,
        "responses": "{\"Q0\":0,\"Q1\":0,\"Q2\":1,\"Q3\":1}",
        "question_order": "[0,1,2,3]",
        "trial_type": "survey-likert",
        "trial_index": 12,
        "time_elapsed": 112895,
        "internal_node_id": "0.0-12.0"
    },
    {
        "rt": 11222.805000143126,
        "responses": "{\"Q0\":1,\"Q1\":0,\"Q2\":0,\"Q3\":0}",
        "question_order": "[0,1,2,3]",
        "trial_type": "survey-likert",
        "trial_index": 13,
        "time_elapsed": 124120,
        "internal_node_id": "0.0-13.0"
    },
    {
        "rt": 7763.485000003129,
        "responses": "{\"Q0\":1,\"Q1\":0,\"Q2\":0,\"Q3\":1}",
        "question_order": "[0,1,2,3]",
        "trial_type": "survey-likert",
        "trial_index": 14,
        "time_elapsed": 131886,
        "internal_node_id": "0.0-14.0"
    },
    {
        "rt": 8374.870000174269,
        "responses": "{\"Q0\":0,\"Q1\":1,\"Q2\":0}",
        "question_order": "[0,1,2]",
        "trial_type": "survey-likert",
        "trial_index": 15,
        "time_elapsed": 140263,
        "internal_node_id": "0.0-15.0"
    },
    {
        "view_history": "[{\"page_index\":0,\"viewing_time\":3987.154999980703},{\"page_index\":1,\"viewing_time\":5106.930000009015},{\"page_index\":2,\"viewing_time\":4263.834999874234}]",
        "rt": 13358.329999959096,
        "trial_type": "instructions",
        "trial_index": 16,
        "time_elapsed": 153628,
        "internal_node_id": "0.0-16.0"
    },
    {
        "rt": 2122.1300000324845,
        "stimulus": "<p>Choose a box,</p>",
        "button_pressed": 2,
        "trial_type": "html-button-response",
        "trial_index": 17,
        "time_elapsed": 155754,
        "internal_node_id": "0.0-17.0-0.0"
    },
    {
        "rate": 0.21703011982002984,
        "trial_type": "html-keyboard-response",
        "trial_index": 18,
        "time_elapsed": 155754,
        "internal_node_id": "0.0-17.0-1.0"
    },
    {
        "rt": null,
        "stimulus": "<div style=\"background-color:#ff7157\"><h1 style=\"background-color:Tomato\">Bad luck! There was no prize in the box!</h1><h1 style=\"background-color:Tomato\">Remember, you need to keep going until you have 20 prizes!</h1><img id=\"box\" src=\"img/sad/purpleopenboxsadthumb.png\"></img></div>",
        "key_press": null,
        "trial_type": "html-keyboard-response",
        "trial_index": 18,
        "time_elapsed": 157256,
        "internal_node_id": "0.0-17.0-1.0"
    },
    {
        "rt": 3456.389999948442,
        "stimulus": "<p>Choose a box,</p>",
        "button_pressed": 1,
        "trial_type": "html-button-response",
        "trial_index": 19,
        "time_elapsed": 160717,
        "internal_node_id": "0.0-17.0-0.1"
    },
    {
        "rate": 0.48571477255665063,
        "trial_type": "html-keyboard-response",
        "trial_index": 20,
        "time_elapsed": 160717,
        "internal_node_id": "0.0-17.0-1.1"
    },
    {
        "rt": null,
        "stimulus": "<div style=\"background-color:#ff7157\"><h1 style=\"background-color:Tomato\">Bad luck! There was no prize in the box!</h1><h1 style=\"background-color:Tomato\">Remember, you need to keep going until you have 20 prizes!</h1><img id=\"box\" src=\"img/sad/greenopenboxsadthumb.png\"></img></div>",
        "key_press": null,
        "trial_type": "html-keyboard-response",
        "trial_index": 20,
        "time_elapsed": 162219,
        "internal_node_id": "0.0-17.0-1.1"
    },
    {
        "rt": 1206.2699999660254,
        "stimulus": "<p>Choose a box,</p>",
        "button_pressed": 2,
        "trial_type": "html-button-response",
        "trial_index": 21,
        "time_elapsed": 163429,
        "internal_node_id": "0.0-17.0-0.2"
    },
    {
        "rate": 0.21703011982002984,
        "trial_type": "html-keyboard-response",
        "trial_index": 22,
        "time_elapsed": 163429,
        "internal_node_id": "0.0-17.0-1.2"
    },
    {
        "rt": null,
        "stimulus": "<div style=\"background-color:#ff7157\"><h1 style=\"background-color:Tomato\">Bad luck! There was no prize in the box!</h1><h1 style=\"background-color:Tomato\">Remember, you need to keep going until you have 20 prizes!</h1><img id=\"box\" src=\"img/sad/purpleopenboxsadthumb.png\"></img></div>",
        "key_press": null,
        "trial_type": "html-keyboard-response",
        "trial_index": 22,
        "time_elapsed": 164930,
        "internal_node_id": "0.0-17.0-1.2"
    },
    {
        "view_history": "[{\"page_index\":0,\"viewing_time\":2536.9400000199676}]",
        "rt": 2537.095000036061,
        "trial_type": "instructions",
        "trial_index": 23,
        "time_elapsed": 167481,
        "internal_node_id": "0.0-18.0"
    },
    {
        "rt": 1974.095000186935,
        "stimulus": "<p>Choose a box,</p>",
        "button_pressed": 1,
        "trial_type": "html-button-response",
        "trial_index": 24,
        "time_elapsed": 169457,
        "internal_node_id": "0.0-19.0-0.0"
    },
    {
        "rate": 0.6859841541157307,
        "trial_type": "html-keyboard-response",
        "trial_index": 25,
        "time_elapsed": 169457,
        "internal_node_id": "0.0-19.0-1.0"
    },
    {
        "rt": null,
        "stimulus": "<div style=\"background-color:#6dce98\"><h1 style=\"background-color:MediumSeaGreen\" >You won a prize! Well done!</h1><div style=\"background-color:#6dce98\"><h1 style=\"background-color:MediumSeaGreen\" >Only 19 left to go!</h1><img id=\"box\" src=\"img/prizes/lolipop.png\"></img><img id=\"box\" src=\"img/empty/greenopenbox.png\"></img></div>",
        "key_press": null,
        "trial_type": "html-keyboard-response",
        "trial_index": 25,
        "time_elapsed": 170959,
        "internal_node_id": "0.0-19.0-1.0"
    },
    {
        "rt": 1020.7549999468029,
        "stimulus": "<p>Choose a box,</p>",
        "button_pressed": 1,
        "trial_type": "html-button-response",
        "trial_index": 26,
        "time_elapsed": 171985,
        "internal_node_id": "0.0-19.1-0.1"
    },
    {
        "rate": 0.6859841541157307,
        "trial_type": "html-keyboard-response",
        "trial_index": 27,
        "time_elapsed": 171985,
        "internal_node_id": "0.0-19.1-1.1"
    },
    {
        "rt": null,
        "stimulus": "<div style=\"background-color:#6dce98\"><h1 style=\"background-color:MediumSeaGreen\" >You won a prize! Well done!</h1><div style=\"background-color:#6dce98\"><h1 style=\"background-color:MediumSeaGreen\" >Only 18 left to go!</h1><img id=\"box\" src=\"img/prizes/beachball.png\"></img><img id=\"box\" src=\"img/empty/greenopenbox.png\"></img></div>",
        "key_press": null,
        "trial_type": "html-keyboard-response",
        "trial_index": 27,
        "time_elapsed": 173486,
        "internal_node_id": "0.0-19.1-1.1"
    },
    {
        "rt": 462.8149999771267,
        "stimulus": "<p>Choose a box,</p>",
        "button_pressed": 1,
        "trial_type": "html-button-response",
        "trial_index": 28,
        "time_elapsed": 173952,
        "internal_node_id": "0.0-19.2-0.2"
    },
    {
        "rate": 0.6859841541157307,
        "trial_type": "html-keyboard-response",
        "trial_index": 29,
        "time_elapsed": 173952,
        "internal_node_id": "0.0-19.2-1.2"
    },
    {
        "rt": null,
        "stimulus": "<div style=\"background-color:#6dce98\"><h1 style=\"background-color:MediumSeaGreen\" >You won a prize! Well done!</h1><div style=\"background-color:#6dce98\"><h1 style=\"background-color:MediumSeaGreen\" >Only 17 left to go!</h1><img id=\"box\" src=\"img/prizes/bear.png\"></img><img id=\"box\" src=\"img/empty/greenopenbox.png\"></img></div>",
        "key_press": null,
        "trial_type": "html-keyboard-response",
        "trial_index": 29,
        "time_elapsed": 175453,
        "internal_node_id": "0.0-19.2-1.2"
    },
    {
        "rt": 428.40499989688396,
        "stimulus": "<p>Choose a box,</p>",
        "button_pressed": 1,
        "trial_type": "html-button-response",
        "trial_index": 30,
        "time_elapsed": 175885,
        "internal_node_id": "0.0-19.3-0.3"
    },
    {
        "rate": 0.6859841541157307,
        "trial_type": "html-keyboard-response",
        "trial_index": 31,
        "time_elapsed": 175885,
        "internal_node_id": "0.0-19.3-1.3"
    },
    {
        "rt": null,
        "stimulus": "<div style=\"background-color:#6dce98\"><h1 style=\"background-color:MediumSeaGreen\" >You won a prize! Well done!</h1><div style=\"background-color:#6dce98\"><h1 style=\"background-color:MediumSeaGreen\" >Only 16 left to go!</h1><img id=\"box\" src=\"img/prizes/bear.png\"></img><img id=\"box\" src=\"img/empty/greenopenbox.png\"></img></div>",
        "key_press": null,
        "trial_type": "html-keyboard-response",
        "trial_index": 31,
        "time_elapsed": 177388,
        "internal_node_id": "0.0-19.3-1.3"
    },
    {
        "rt": 431.03000009432435,
        "stimulus": "<p>Choose a box,</p>",
        "button_pressed": 1,
        "trial_type": "html-button-response",
        "trial_index": 32,
        "time_elapsed": 177820,
        "internal_node_id": "0.0-19.4-0.4"
    },
    {
        "rate": 0.6859841541157307,
        "trial_type": "html-keyboard-response",
        "trial_index": 33,
        "time_elapsed": 177821,
        "internal_node_id": "0.0-19.4-1.4"
    },
    {
        "rt": null,
        "stimulus": "<div style=\"background-color:#6dce98\"><h1 style=\"background-color:MediumSeaGreen\" >You won a prize! Well done!</h1><div style=\"background-color:#6dce98\"><h1 style=\"background-color:MediumSeaGreen\" >Only 15 left to go!</h1><img id=\"box\" src=\"img/prizes/beachball.png\"></img><img id=\"box\" src=\"img/empty/greenopenbox.png\"></img></div>",
        "key_press": null,
        "trial_type": "html-keyboard-response",
        "trial_index": 33,
        "time_elapsed": 179324,
        "internal_node_id": "0.0-19.4-1.4"
    },
    {
        "rt": 430.1899999845773,
        "stimulus": "<p>Choose a box,</p>",
        "button_pressed": 1,
        "trial_type": "html-button-response",
        "trial_index": 34,
        "time_elapsed": 179757,
        "internal_node_id": "0.0-19.5-0.5"
    },
    {
        "rate": 0.6859841541157307,
        "trial_type": "html-keyboard-response",
        "trial_index": 35,
        "time_elapsed": 179757,
        "internal_node_id": "0.0-19.5-1.5"
    },
    {
        "rt": null,
        "stimulus": "<div style=\"background-color:#6dce98\"><h1 style=\"background-color:MediumSeaGreen\" >You won a prize! Well done!</h1><div style=\"background-color:#6dce98\"><h1 style=\"background-color:MediumSeaGreen\" >Only 14 left to go!</h1><img id=\"box\" src=\"img/prizes/coins.png\"></img><img id=\"box\" src=\"img/empty/greenopenbox.png\"></img></div>",
        "key_press": null,
        "trial_type": "html-keyboard-response",
        "trial_index": 35,
        "time_elapsed": 181258,
        "internal_node_id": "0.0-19.5-1.5"
    },
    {
        "rt": 358.8549999985844,
        "stimulus": "<p>Choose a box,</p>",
        "button_pressed": 1,
        "trial_type": "html-button-response",
        "trial_index": 36,
        "time_elapsed": 181620,
        "internal_node_id": "0.0-19.6-0.6"
    },
    {
        "rate": 0.6859841541157307,
        "trial_type": "html-keyboard-response",
        "trial_index": 37,
        "time_elapsed": 181620,
        "internal_node_id": "0.0-19.6-1.6"
    },
    {
        "rt": null,
        "stimulus": "<div style=\"background-color:#6dce98\"><h1 style=\"background-color:MediumSeaGreen\" >You won a prize! Well done!</h1><div style=\"background-color:#6dce98\"><h1 style=\"background-color:MediumSeaGreen\" >Only 13 left to go!</h1><img id=\"box\" src=\"img/prizes/beachball.png\"></img><img id=\"box\" src=\"img/empty/greenopenbox.png\"></img></div>",
        "key_press": null,
        "trial_type": "html-keyboard-response",
        "trial_index": 37,
        "time_elapsed": 183122,
        "internal_node_id": "0.0-19.6-1.6"
    },
    {
        "rt": 280.86000005714595,
        "stimulus": "<p>Choose a box,</p>",
        "button_pressed": 1,
        "trial_type": "html-button-response",
        "trial_index": 38,
        "time_elapsed": 183403,
        "internal_node_id": "0.0-19.7-0.7"
    },
    {
        "rate": 0.6859841541157307,
        "trial_type": "html-keyboard-response",
        "trial_index": 39,
        "time_elapsed": 183404,
        "internal_node_id": "0.0-19.7-1.7"
    },
    {
        "rt": null,
        "stimulus": "<div style=\"background-color:#ff7157\"><h1 style=\"background-color:Tomato\">Bad luck! There was no prize in the box!</h1><h1 style=\"background-color:Tomato\">Remember, you need to keep going until you have 20 prizes!</h1><img id=\"box\" src=\"img/sad/greenopenboxsadthumb.png\"></img></div>",
        "key_press": null,
        "trial_type": "html-keyboard-response",
        "trial_index": 39,
        "time_elapsed": 184906,
        "internal_node_id": "0.0-19.7-1.7"
    },
    {
        "rt": 440.3700002003461,
        "stimulus": "<p>Choose a box,</p>",
        "button_pressed": 1,
        "trial_type": "html-button-response",
        "trial_index": 40,
        "time_elapsed": 185348,
        "internal_node_id": "0.0-19.8-0.8"
    },
    {
        "rate": 0.6859841541157307,
        "trial_type": "html-keyboard-response",
        "trial_index": 41,
        "time_elapsed": 185349,
        "internal_node_id": "0.0-19.8-1.8"
    },
    {
        "rt": null,
        "stimulus": "<div style=\"background-color:#6dce98\"><h1 style=\"background-color:MediumSeaGreen\" >You won a prize! Well done!</h1><div style=\"background-color:#6dce98\"><h1 style=\"background-color:MediumSeaGreen\" >Only 12 left to go!</h1><img id=\"box\" src=\"img/prizes/duck.png\"></img><img id=\"box\" src=\"img/empty/greenopenbox.png\"></img></div>",
        "key_press": null,
        "trial_type": "html-keyboard-response",
        "trial_index": 41,
        "time_elapsed": 186852,
        "internal_node_id": "0.0-19.8-1.8"
    },
    {
        "rt": 384.6749998629093,
        "stimulus": "<p>Choose a box,</p>",
        "button_pressed": 1,
        "trial_type": "html-button-response",
        "trial_index": 42,
        "time_elapsed": 187240,
        "internal_node_id": "0.0-19.9-0.9"
    },
    {
        "rate": 0.6859841541157307,
        "trial_type": "html-keyboard-response",
        "trial_index": 43,
        "time_elapsed": 187240,
        "internal_node_id": "0.0-19.9-1.9"
    },
    {
        "rt": null,
        "stimulus": "<div style=\"background-color:#ff7157\"><h1 style=\"background-color:Tomato\">Bad luck! There was no prize in the box!</h1><h1 style=\"background-color:Tomato\">Remember, you need to keep going until you have 20 prizes!</h1><img id=\"box\" src=\"img/sad/greenopenboxsadthumb.png\"></img></div>",
        "key_press": null,
        "trial_type": "html-keyboard-response",
        "trial_index": 43,
        "time_elapsed": 188743,
        "internal_node_id": "0.0-19.9-1.9"
    },
    {
        "rt": 374.4999999180436,
        "stimulus": "<p>Choose a box,</p>",
        "button_pressed": 1,
        "trial_type": "html-button-response",
        "trial_index": 44,
        "time_elapsed": 189121,
        "internal_node_id": "0.0-19.10-0.10"
    },
    {
        "rate": 0.6859841541157307,
        "trial_type": "html-keyboard-response",
        "trial_index": 45,
        "time_elapsed": 189121,
        "internal_node_id": "0.0-19.10-1.10"
    },
    {
        "rt": null,
        "stimulus": "<div style=\"background-color:#6dce98\"><h1 style=\"background-color:MediumSeaGreen\" >You won a prize! Well done!</h1><div style=\"background-color:#6dce98\"><h1 style=\"background-color:MediumSeaGreen\" >Only 11 left to go!</h1><img id=\"box\" src=\"img/prizes/lolipop.png\"></img><img id=\"box\" src=\"img/empty/greenopenbox.png\"></img></div>",
        "key_press": null,
        "trial_type": "html-keyboard-response",
        "trial_index": 45,
        "time_elapsed": 190624,
        "internal_node_id": "0.0-19.10-1.10"
    },
    {
        "rt": 361.79999983869493,
        "stimulus": "<p>Choose a box,</p>",
        "button_pressed": 1,
        "trial_type": "html-button-response",
        "trial_index": 46,
        "time_elapsed": 190989,
        "internal_node_id": "0.0-19.11-0.11"
    },
    {
        "rate": 0.6859841541157307,
        "trial_type": "html-keyboard-response",
        "trial_index": 47,
        "time_elapsed": 190989,
        "internal_node_id": "0.0-19.11-1.11"
    },
    {
        "rt": null,
        "stimulus": "<div style=\"background-color:#6dce98\"><h1 style=\"background-color:MediumSeaGreen\" >You won a prize! Well done!</h1><div style=\"background-color:#6dce98\"><h1 style=\"background-color:MediumSeaGreen\" >Only 10 left to go!</h1><img id=\"box\" src=\"img/prizes/beachball.png\"></img><img id=\"box\" src=\"img/empty/greenopenbox.png\"></img></div>",
        "key_press": null,
        "trial_type": "html-keyboard-response",
        "trial_index": 47,
        "time_elapsed": 192490,
        "internal_node_id": "0.0-19.11-1.11"
    },
    {
        "rt": 363.4899999015033,
        "stimulus": "<p>Choose a box,</p>",
        "button_pressed": 1,
        "trial_type": "html-button-response",
        "trial_index": 48,
        "time_elapsed": 192857,
        "internal_node_id": "0.0-19.12-0.12"
    },
    {
        "rate": 0.6859841541157307,
        "trial_type": "html-keyboard-response",
        "trial_index": 49,
        "time_elapsed": 192857,
        "internal_node_id": "0.0-19.12-1.12"
    },
    {
        "rt": null,
        "stimulus": "<div style=\"background-color:#6dce98\"><h1 style=\"background-color:MediumSeaGreen\" >You won a prize! Well done!</h1><div style=\"background-color:#6dce98\"><h1 style=\"background-color:MediumSeaGreen\" >Only 9 left to go!</h1><img id=\"box\" src=\"img/prizes/choc.png\"></img><img id=\"box\" src=\"img/empty/greenopenbox.png\"></img></div>",
        "key_press": null,
        "trial_type": "html-keyboard-response",
        "trial_index": 49,
        "time_elapsed": 194359,
        "internal_node_id": "0.0-19.12-1.12"
    },
    {
        "rt": 366.78999988362193,
        "stimulus": "<p>Choose a box,</p>",
        "button_pressed": 1,
        "trial_type": "html-button-response",
        "trial_index": 50,
        "time_elapsed": 194728,
        "internal_node_id": "0.0-19.13-0.13"
    },
    {
        "rate": 0.6859841541157307,
        "trial_type": "html-keyboard-response",
        "trial_index": 51,
        "time_elapsed": 194729,
        "internal_node_id": "0.0-19.13-1.13"
    },
    {
        "rt": null,
        "stimulus": "<div style=\"background-color:#ff7157\"><h1 style=\"background-color:Tomato\">Bad luck! There was no prize in the box!</h1><h1 style=\"background-color:Tomato\">Remember, you need to keep going until you have 20 prizes!</h1><img id=\"box\" src=\"img/sad/greenopenboxsadthumb.png\"></img></div>",
        "key_press": null,
        "trial_type": "html-keyboard-response",
        "trial_index": 51,
        "time_elapsed": 196231,
        "internal_node_id": "0.0-19.13-1.13"
    },
    {
        "rt": 398.4999998938292,
        "stimulus": "<p>Choose a box,</p>",
        "button_pressed": 1,
        "trial_type": "html-button-response",
        "trial_index": 52,
        "time_elapsed": 196632,
        "internal_node_id": "0.0-19.14-0.14"
    },
    {
        "rate": 0.6859841541157307,
        "trial_type": "html-keyboard-response",
        "trial_index": 53,
        "time_elapsed": 196633,
        "internal_node_id": "0.0-19.14-1.14"
    },
    {
        "rt": null,
        "stimulus": "<div style=\"background-color:#6dce98\"><h1 style=\"background-color:MediumSeaGreen\" >You won a prize! Well done!</h1><div style=\"background-color:#6dce98\"><h1 style=\"background-color:MediumSeaGreen\" >Only 8 left to go!</h1><img id=\"box\" src=\"img/prizes/ring.png\"></img><img id=\"box\" src=\"img/empty/greenopenbox.png\"></img></div>",
        "key_press": null,
        "trial_type": "html-keyboard-response",
        "trial_index": 53,
        "time_elapsed": 198136,
        "internal_node_id": "0.0-19.14-1.14"
    },
    {
        "rt": 406.8399998359382,
        "stimulus": "<p>Choose a box,</p>",
        "button_pressed": 1,
        "trial_type": "html-button-response",
        "trial_index": 54,
        "time_elapsed": 198544,
        "internal_node_id": "0.0-19.15-0.15"
    },
    {
        "rate": 0.6859841541157307,
        "trial_type": "html-keyboard-response",
        "trial_index": 55,
        "time_elapsed": 198544,
        "internal_node_id": "0.0-19.15-1.15"
    },
    {
        "rt": null,
        "stimulus": "<div style=\"background-color:#6dce98\"><h1 style=\"background-color:MediumSeaGreen\" >You won a prize! Well done!</h1><div style=\"background-color:#6dce98\"><h1 style=\"background-color:MediumSeaGreen\" >Only 7 left to go!</h1><img id=\"box\" src=\"img/prizes/yoyo.png\"></img><img id=\"box\" src=\"img/empty/greenopenbox.png\"></img></div>",
        "key_press": null,
        "trial_type": "html-keyboard-response",
        "trial_index": 55,
        "time_elapsed": 200046,
        "internal_node_id": "0.0-19.15-1.15"
    },
    {
        "rt": 398.9449997898191,
        "stimulus": "<p>Choose a box,</p>",
        "button_pressed": 1,
        "trial_type": "html-button-response",
        "trial_index": 56,
        "time_elapsed": 200449,
        "internal_node_id": "0.0-19.16-0.16"
    },
    {
        "rate": 0.6859841541157307,
        "trial_type": "html-keyboard-response",
        "trial_index": 57,
        "time_elapsed": 200449,
        "internal_node_id": "0.0-19.16-1.16"
    },
    {
        "rt": null,
        "stimulus": "<div style=\"background-color:#ff7157\"><h1 style=\"background-color:Tomato\">Bad luck! There was no prize in the box!</h1><h1 style=\"background-color:Tomato\">Remember, you need to keep going until you have 20 prizes!</h1><img id=\"box\" src=\"img/sad/greenopenboxsadthumb.png\"></img></div>",
        "key_press": null,
        "trial_type": "html-keyboard-response",
        "trial_index": 57,
        "time_elapsed": 201950,
        "internal_node_id": "0.0-19.16-1.16"
    },
    {
        "rt": 344.9800000526011,
        "stimulus": "<p>Choose a box,</p>",
        "button_pressed": 1,
        "trial_type": "html-button-response",
        "trial_index": 58,
        "time_elapsed": 202296,
        "internal_node_id": "0.0-19.17-0.17"
    },
    {
        "rate": 0.6859841541157307,
        "trial_type": "html-keyboard-response",
        "trial_index": 59,
        "time_elapsed": 202297,
        "internal_node_id": "0.0-19.17-1.17"
    },
    {
        "rt": null,
        "stimulus": "<div style=\"background-color:#ff7157\"><h1 style=\"background-color:Tomato\">Bad luck! There was no prize in the box!</h1><h1 style=\"background-color:Tomato\">Remember, you need to keep going until you have 20 prizes!</h1><img id=\"box\" src=\"img/sad/greenopenboxsadthumb.png\"></img></div>",
        "key_press": null,
        "trial_type": "html-keyboard-response",
        "trial_index": 59,
        "time_elapsed": 203799,
        "internal_node_id": "0.0-19.17-1.17"
    },
    {
        "rt": 408.32499996759,
        "stimulus": "<p>Choose a box,</p>",
        "button_pressed": 1,
        "trial_type": "html-button-response",
        "trial_index": 60,
        "time_elapsed": 204208,
        "internal_node_id": "0.0-19.18-0.18"
    },
    {
        "rate": 0.6859841541157307,
        "trial_type": "html-keyboard-response",
        "trial_index": 61,
        "time_elapsed": 204209,
        "internal_node_id": "0.0-19.18-1.18"
    },
    {
        "rt": null,
        "stimulus": "<div style=\"background-color:#6dce98\"><h1 style=\"background-color:MediumSeaGreen\" >You won a prize! Well done!</h1><div style=\"background-color:#6dce98\"><h1 style=\"background-color:MediumSeaGreen\" >Only 6 left to go!</h1><img id=\"box\" src=\"img/prizes/flowers.png\"></img><img id=\"box\" src=\"img/empty/greenopenbox.png\"></img></div>",
        "key_press": null,
        "trial_type": "html-keyboard-response",
        "trial_index": 61,
        "time_elapsed": 205711,
        "internal_node_id": "0.0-19.18-1.18"
    },
    {
        "rt": 439.53000009059906,
        "stimulus": "<p>Choose a box,</p>",
        "button_pressed": 1,
        "trial_type": "html-button-response",
        "trial_index": 62,
        "time_elapsed": 206152,
        "internal_node_id": "0.0-19.19-0.19"
    },
    {
        "rate": 0.6859841541157307,
        "trial_type": "html-keyboard-response",
        "trial_index": 63,
        "time_elapsed": 206153,
        "internal_node_id": "0.0-19.19-1.19"
    },
    {
        "rt": null,
        "stimulus": "<div style=\"background-color:#ff7157\"><h1 style=\"background-color:Tomato\">Bad luck! There was no prize in the box!</h1><h1 style=\"background-color:Tomato\">Remember, you need to keep going until you have 20 prizes!</h1><img id=\"box\" src=\"img/sad/greenopenboxsadthumb.png\"></img></div>",
        "key_press": null,
        "trial_type": "html-keyboard-response",
        "trial_index": 63,
        "time_elapsed": 207654,
        "internal_node_id": "0.0-19.19-1.19"
    },
    {
        "rt": 374.8749999795109,
        "stimulus": "<p>Choose a box,</p>",
        "button_pressed": 1,
        "trial_type": "html-button-response",
        "trial_index": 64,
        "time_elapsed": 208032,
        "internal_node_id": "0.0-19.20-0.20"
    },
    {
        "rate": 0.6859841541157307,
        "trial_type": "html-keyboard-response",
        "trial_index": 65,
        "time_elapsed": 208032,
        "internal_node_id": "0.0-19.20-1.20"
    },
    {
        "rt": null,
        "stimulus": "<div style=\"background-color:#6dce98\"><h1 style=\"background-color:MediumSeaGreen\" >You won a prize! Well done!</h1><div style=\"background-color:#6dce98\"><h1 style=\"background-color:MediumSeaGreen\" >Only 5 left to go!</h1><img id=\"box\" src=\"img/prizes/yoyo.png\"></img><img id=\"box\" src=\"img/empty/greenopenbox.png\"></img></div>",
        "key_press": null,
        "trial_type": "html-keyboard-response",
        "trial_index": 65,
        "time_elapsed": 209535,
        "internal_node_id": "0.0-19.20-1.20"
    },
    {
        "rt": 1028.4049999900162,
        "stimulus": "<p>Choose a box,</p>",
        "button_pressed": 1,
        "trial_type": "html-button-response",
        "trial_index": 66,
        "time_elapsed": 210564,
        "internal_node_id": "0.0-19.21-0.21"
    },
    {
        "rate": 0.6859841541157307,
        "trial_type": "html-keyboard-response",
        "trial_index": 67,
        "time_elapsed": 210564,
        "internal_node_id": "0.0-19.21-1.21"
    },
    {
        "rt": null,
        "stimulus": "<div style=\"background-color:#6dce98\"><h1 style=\"background-color:MediumSeaGreen\" >You won a prize! Well done!</h1><div style=\"background-color:#6dce98\"><h1 style=\"background-color:MediumSeaGreen\" >Only 4 left to go!</h1><img id=\"box\" src=\"img/prizes/coins.png\"></img><img id=\"box\" src=\"img/empty/greenopenbox.png\"></img></div>",
        "key_press": null,
        "trial_type": "html-keyboard-response",
        "trial_index": 67,
        "time_elapsed": 212067,
        "internal_node_id": "0.0-19.21-1.21"
    },
    {
        "rt": 164.44500000216067,
        "stimulus": "<p>Choose a box,</p>",
        "button_pressed": 1,
        "trial_type": "html-button-response",
        "trial_index": 68,
        "time_elapsed": 212236,
        "internal_node_id": "0.0-19.22-0.22"
    },
    {
        "rate": 0.6859841541157307,
        "trial_type": "html-keyboard-response",
        "trial_index": 69,
        "time_elapsed": 212236,
        "internal_node_id": "0.0-19.22-1.22"
    },
    {
        "rt": null,
        "stimulus": "<div style=\"background-color:#ff7157\"><h1 style=\"background-color:Tomato\">Bad luck! There was no prize in the box!</h1><h1 style=\"background-color:Tomato\">Remember, you need to keep going until you have 20 prizes!</h1><img id=\"box\" src=\"img/sad/greenopenboxsadthumb.png\"></img></div>",
        "key_press": null,
        "trial_type": "html-keyboard-response",
        "trial_index": 69,
        "time_elapsed": 213737,
        "internal_node_id": "0.0-19.22-1.22"
    },
    {
        "rt": 345.74000001884997,
        "stimulus": "<p>Choose a box,</p>",
        "button_pressed": 1,
        "trial_type": "html-button-response",
        "trial_index": 70,
        "time_elapsed": 214092,
        "internal_node_id": "0.0-19.23-0.23"
    },
    {
        "rate": 0.6859841541157307,
        "trial_type": "html-keyboard-response",
        "trial_index": 71,
        "time_elapsed": 214092,
        "internal_node_id": "0.0-19.23-1.23"
    },
    {
        "rt": null,
        "stimulus": "<div style=\"background-color:#6dce98\"><h1 style=\"background-color:MediumSeaGreen\" >You won a prize! Well done!</h1><div style=\"background-color:#6dce98\"><h1 style=\"background-color:MediumSeaGreen\" >Only 3 left to go!</h1><img id=\"box\" src=\"img/prizes/flowers.png\"></img><img id=\"box\" src=\"img/empty/greenopenbox.png\"></img></div>",
        "key_press": null,
        "trial_type": "html-keyboard-response",
        "trial_index": 71,
        "time_elapsed": 215594,
        "internal_node_id": "0.0-19.23-1.23"
    },
    {
        "rt": 303.590000141412,
        "stimulus": "<p>Choose a box,</p>",
        "button_pressed": 1,
        "trial_type": "html-button-response",
        "trial_index": 72,
        "time_elapsed": 215899,
        "internal_node_id": "0.0-19.24-0.24"
    },
    {
        "rate": 0.6859841541157307,
        "trial_type": "html-keyboard-response",
        "trial_index": 73,
        "time_elapsed": 215899,
        "internal_node_id": "0.0-19.24-1.24"
    },
    {
        "rt": null,
        "stimulus": "<div style=\"background-color:#ff7157\"><h1 style=\"background-color:Tomato\">Bad luck! There was no prize in the box!</h1><h1 style=\"background-color:Tomato\">Remember, you need to keep going until you have 20 prizes!</h1><img id=\"box\" src=\"img/sad/greenopenboxsadthumb.png\"></img></div>",
        "key_press": null,
        "trial_type": "html-keyboard-response",
        "trial_index": 73,
        "time_elapsed": 217402,
        "internal_node_id": "0.0-19.24-1.24"
    },
    {
        "rt": 230.82000017166138,
        "stimulus": "<p>Choose a box,</p>",
        "button_pressed": 1,
        "trial_type": "html-button-response",
        "trial_index": 74,
        "time_elapsed": 217636,
        "internal_node_id": "0.0-19.25-0.25"
    },
    {
        "rate": 0.6859841541157307,
        "trial_type": "html-keyboard-response",
        "trial_index": 75,
        "time_elapsed": 217636,
        "internal_node_id": "0.0-19.25-1.25"
    },
    {
        "rt": null,
        "stimulus": "<div style=\"background-color:#6dce98\"><h1 style=\"background-color:MediumSeaGreen\" >You won a prize! Well done!</h1><div style=\"background-color:#6dce98\"><h1 style=\"background-color:MediumSeaGreen\" >Only 2 left to go!</h1><img id=\"box\" src=\"img/prizes/choc.png\"></img><img id=\"box\" src=\"img/empty/greenopenbox.png\"></img></div>",
        "key_press": null,
        "trial_type": "html-keyboard-response",
        "trial_index": 75,
        "time_elapsed": 219138,
        "internal_node_id": "0.0-19.25-1.25"
    },
    {
        "rt": 382.8100000973791,
        "stimulus": "<p>Choose a box,</p>",
        "button_pressed": 1,
        "trial_type": "html-button-response",
        "trial_index": 76,
        "time_elapsed": 219524,
        "internal_node_id": "0.0-19.26-0.26"
    },
    {
        "rate": 0.6859841541157307,
        "trial_type": "html-keyboard-response",
        "trial_index": 77,
        "time_elapsed": 219524,
        "internal_node_id": "0.0-19.26-1.26"
    },
    {
        "rt": null,
        "stimulus": "<div style=\"background-color:#ff7157\"><h1 style=\"background-color:Tomato\">Bad luck! There was no prize in the box!</h1><h1 style=\"background-color:Tomato\">Remember, you need to keep going until you have 20 prizes!</h1><img id=\"box\" src=\"img/sad/greenopenboxsadthumb.png\"></img></div>",
        "key_press": null,
        "trial_type": "html-keyboard-response",
        "trial_index": 77,
        "time_elapsed": 221027,
        "internal_node_id": "0.0-19.26-1.26"
    },
    {
        "rt": 272.85500010475516,
        "stimulus": "<p>Choose a box,</p>",
        "button_pressed": 1,
        "trial_type": "html-button-response",
        "trial_index": 78,
        "time_elapsed": 221303,
        "internal_node_id": "0.0-19.27-0.27"
    },
    {
        "rate": 0.6859841541157307,
        "trial_type": "html-keyboard-response",
        "trial_index": 79,
        "time_elapsed": 221304,
        "internal_node_id": "0.0-19.27-1.27"
    },
    {
        "rt": null,
        "stimulus": "<div style=\"background-color:#ff7157\"><h1 style=\"background-color:Tomato\">Bad luck! There was no prize in the box!</h1><h1 style=\"background-color:Tomato\">Remember, you need to keep going until you have 20 prizes!</h1><img id=\"box\" src=\"img/sad/greenopenboxsadthumb.png\"></img></div>",
        "key_press": null,
        "trial_type": "html-keyboard-response",
        "trial_index": 79,
        "time_elapsed": 222807,
        "internal_node_id": "0.0-19.27-1.27"
    },
    {
        "rt": 402.64500002376735,
        "stimulus": "<p>Choose a box,</p>",
        "button_pressed": 1,
        "trial_type": "html-button-response",
        "trial_index": 80,
        "time_elapsed": 223212,
        "internal_node_id": "0.0-19.28-0.28"
    },
    {
        "rate": 0.6859841541157307,
        "trial_type": "html-keyboard-response",
        "trial_index": 81,
        "time_elapsed": 223212,
        "internal_node_id": "0.0-19.28-1.28"
    },
    {
        "rt": null,
        "stimulus": "<div style=\"background-color:#6dce98\"><h1 style=\"background-color:MediumSeaGreen\" >You won a prize! Well done!</h1><div style=\"background-color:#6dce98\"><h1 style=\"background-color:MediumSeaGreen\" >Only 1 left to go!</h1><img id=\"box\" src=\"img/prizes/ring.png\"></img><img id=\"box\" src=\"img/empty/greenopenbox.png\"></img></div>",
        "key_press": null,
        "trial_type": "html-keyboard-response",
        "trial_index": 81,
        "time_elapsed": 224715,
        "internal_node_id": "0.0-19.28-1.28"
    },
    {
        "rt": 414.25500018522143,
        "stimulus": "<p>Choose a box,</p>",
        "button_pressed": 1,
        "trial_type": "html-button-response",
        "trial_index": 82,
        "time_elapsed": 225132,
        "internal_node_id": "0.0-19.29-0.29"
    },
    {
        "rate": 0.6859841541157307,
        "trial_type": "html-keyboard-response",
        "trial_index": 83,
        "time_elapsed": 225132,
        "internal_node_id": "0.0-19.29-1.29"
    },
    {
        "rt": null,
        "stimulus": "<div style=\"background-color:#6dce98\"><h1 style=\"background-color:MediumSeaGreen\" >You won a prize! Well done!</h1><div style=\"background-color:#6dce98\"><h1 style=\"background-color:MediumSeaGreen\" >Only 0 left to go!</h1><img id=\"box\" src=\"img/prizes/beachball.png\"></img><img id=\"box\" src=\"img/empty/greenopenbox.png\"></img></div>",
        "key_press": null,
        "trial_type": "html-keyboard-response",
        "trial_index": 83,
        "time_elapsed": 226634,
        "internal_node_id": "0.0-19.29-1.29"
    },
    {
        "rt": 13471.929999999702,
        "responses": "{\"Q0\":\"interesting\",\"Q1\":\"kept with the same one\"}",
        "trial_type": "survey-text",
        "trial_index": 84,
        "time_elapsed": 240112,
        "internal_node_id": "0.0-20.0"
    }
]