[{"view_history":"[{\"page_index\":0,\"viewing_time\":14605.100000044331},{\"page_index\":1,\"viewing_time\":10067.365000024438},{\"page_index\":2,\"viewing_time\":22192.92000005953},{\"page_index\":3,\"viewing_time\":9529.80999997817},{\"page_index\":4,\"viewing_time\":4897.579999873415},{\"page_index\":5,\"viewing_time\":15312.919999938458}]","rt":76606.96000000462,"trial_type":"instructions","trial_index":0,"time_elapsed":76614,"internal_node_id":"0.0-0.0"},{"rt":8271.565000060946,"responses":"{\"Q0\":\"Yes\",\"Q1\":\"Yes\",\"Q2\":\"Yes\"}","question_order":"[0,1,2]","trial_type":"survey-multi-choice","trial_index":1,"time_elapsed":84888,"internal_node_id":"0.0-1.0-0.0"},{"rt":9388.82500003092,"responses":"{\"Q0\":\"Yes\",\"Q1\":\"Yes\",\"Q2\":\"Yes\"}","question_order":"[0,1,2]","trial_type":"survey-multi-choice","trial_index":2,"time_elapsed":94286,"internal_node_id":"0.0-2.0-0.0"},{"rt":8508.544999873266,"responses":"{\"Q0\":\"5f51421e275a74350a450b06\"}","trial_type":"survey-text","trial_index":3,"time_elapsed":102810,"internal_node_id":"0.0-3.0"},{"rt":6393.444999819621,"responses":"{\"Q0\":\"Female\",\"Q1\":\"18-25\"}","question_order":"[0,1]","trial_type":"survey-multi-choice","trial_index":4,"time_elapsed":109206,"internal_node_id":"0.0-4.0"},{"rt":37839.87000002526,"responses":"{\"Q0\":\"Dilasedan Clotiazepam 5mg\"}","trial_type":"survey-text","trial_index":5,"time_elapsed":147055,"internal_node_id":"0.0-5.0"},{"view_history":"[{\"page_index\":0,\"viewing_time\":4010.0300000049174}]","rt":4010.3850001469254,"trial_type":"instructions","trial_index":6,"time_elapsed":151066,"internal_node_id":"0.0-6.0"},{"rt":12840.205000014976,"responses":"{\"Interested\":1,\"Distressed\":3,\"Excited\":1,\"Upset\":3}","question_order":"[0,1,2,3]","trial_type":"survey-likert","trial_index":7,"time_elapsed":163910,"internal_node_id":"0.0-7.0"},{"rt":16295.340000186116,"responses":"{\"Strong\":0,\"Guilty\":4,\"Scared\":3,\"Hostile\":1}","question_order":"[0,1,2,3]","trial_type":"survey-likert","trial_index":8,"time_elapsed":180212,"internal_node_id":"0.0-8.0"},{"rt":10870.83000014536,"responses":"{\"Enthusiastic\":1,\"Proud\":1,\"Irritable\":3,\"Alert\":4}","question_order":"[0,1,2,3]","trial_type":"survey-likert","trial_index":9,"time_elapsed":191089,"internal_node_id":"0.0-9.0"},{"rt":10207.345000002533,"responses":"{\"Ashamed\":3,\"Inspired\":1,\"Nervous\":4,\"Determined\":2}","question_order":"[0,1,2,3]","trial_type":"survey-likert","trial_index":10,"time_elapsed":201304,"internal_node_id":"0.0-10.0"},{"rt":9569.884999888018,"responses":"{\"Attentive\":2,\"Jittery\":3,\"Active\":1,\"Afraid\":4}","question_order":"[0,1,2,3]","trial_type":"survey-likert","trial_index":11,"time_elapsed":210882,"internal_node_id":"0.0-11.0"},{"rt":18457.04499981366,"responses":"{\"Q0\":1,\"Q1\":1,\"Q2\":2,\"Q3\":2}","question_order":"[0,1,2,3]","trial_type":"survey-likert","trial_index":12,"time_elapsed":229346,"internal_node_id":"0.0-12.0"},{"rt":19716.97499998845,"responses":"{\"Q0\":3,\"Q1\":1,\"Q2\":1,\"Q3\":0}","question_order":"[0,1,2,3]","trial_type":"survey-likert","trial_index":13,"time_elapsed":249069,"internal_node_id":"0.0-13.0"},{"rt":11309.184999903664,"responses":"{\"Q0\":3,\"Q1\":3,\"Q2\":3,\"Q3\":3}","question_order":"[0,1,2,3]","trial_type":"survey-likert","trial_index":14,"time_elapsed":260387,"internal_node_id":"0.0-14.0"},{"rt":16417.460000142455,"responses":"{\"Q0\":3,\"Q1\":1,\"Q2\":3}","question_order":"[0,1,2]","trial_type":"survey-likert","trial_index":15,"time_elapsed":276811,"internal_node_id":"0.0-15.0"},{"view_history":"[{\"page_index\":0,\"viewing_time\":2343.845000024885},{\"page_index\":1,\"viewing_time\":9086.84999984689},{\"page_index\":2,\"viewing_time\":6259.655000176281}]","rt":17690.79999998212,"trial_type":"instructions","trial_index":16,"time_elapsed":294513,"internal_node_id":"0.0-16.0"},{"rt":3362.8950000274926,"stimulus":"<p>Choose a box,</p>","button_pressed":3,"trial_type":"html-button-response","trial_index":17,"time_elapsed":297880,"internal_node_id":"0.0-17.0-0.0"},{"rate":0.43763777063298026,"trial_type":"html-keyboard-response","trial_index":18,"time_elapsed":297880,"internal_node_id":"0.0-17.0-1.0"},{"rt":null,"stimulus":"<div style=\"background-color:#ff7157\"><h1 style=\"background-color:Tomato\">Bad luck! There was no prize in the box!</h1><h1 style=\"background-color:Tomato\">Remember, you need to keep going until you have 20 prizes!</h1><img id=\"box\" src=\"img/sad/redopenboxsadthumb.png\"></img></div>","key_press":null,"trial_type":"html-keyboard-response","trial_index":18,"time_elapsed":299388,"internal_node_id":"0.0-17.0-1.0"},{"rt":2699.389999965206,"stimulus":"<p>Choose a box,</p>","button_pressed":1,"trial_type":"html-button-response","trial_index":19,"time_elapsed":302090,"internal_node_id":"0.0-17.0-0.1"},{"rate":0.7758982121533069,"trial_type":"html-keyboard-response","trial_index":20,"time_elapsed":302090,"internal_node_id":"0.0-17.0-1.1"},{"rt":null,"stimulus":"<div style=\"background-color:#6dce98\"><h1 style=\"background-color:MediumSeaGreen\" >You won a prize! Well done!</h1><div style=\"background-color:#6dce98\"><h1 style=\"background-color:MediumSeaGreen\" >Only 19 left to go!</h1><img id=\"box\" src=\"img/prizes/flowers.png\"></img><img id=\"box\" src=\"img/empty/greenopenbox.png\"></img></div>","key_press":null,"trial_type":"html-keyboard-response","trial_index":20,"time_elapsed":303592,"internal_node_id":"0.0-17.0-1.1"},{"rt":3928.6299999803305,"stimulus":"<p>Choose a box,</p>","button_pressed":1,"trial_type":"html-button-response","trial_index":21,"time_elapsed":307523,"internal_node_id":"0.0-17.0-0.2"},{"rate":0.7758982121533069,"trial_type":"html-keyboard-response","trial_index":22,"time_elapsed":307524,"internal_node_id":"0.0-17.0-1.2"},{"rt":null,"stimulus":"<div style=\"background-color:#6dce98\"><h1 style=\"background-color:MediumSeaGreen\" >You won a prize! Well done!</h1><div style=\"background-color:#6dce98\"><h1 style=\"background-color:MediumSeaGreen\" >Only 18 left to go!</h1><img id=\"box\" src=\"img/prizes/beachball.png\"></img><img id=\"box\" src=\"img/empty/greenopenbox.png\"></img></div>","key_press":null,"trial_type":"html-keyboard-response","trial_index":22,"time_elapsed":309036,"internal_node_id":"0.0-17.0-1.2"},{"view_history":"[{\"page_index\":0,\"viewing_time\":8207.074999809265}]","rt":8207.419999875128,"trial_type":"instructions","trial_index":23,"time_elapsed":317248,"internal_node_id":"0.0-18.0"},{"rt":1276.704999851063,"stimulus":"<p>Choose a box,</p>","button_pressed":1,"trial_type":"html-button-response","trial_index":24,"time_elapsed":318527,"internal_node_id":"0.0-19.0-0.0"},{"rate":0.5785806235191214,"trial_type":"html-keyboard-response","trial_index":25,"time_elapsed":318528,"internal_node_id":"0.0-19.0-1.0"},{"rt":null,"stimulus":"<div style=\"background-color:#ff7157\"><h1 style=\"background-color:Tomato\">Bad luck! There was no prize in the box!</h1><h1 style=\"background-color:Tomato\">Remember, you need to keep going until you have 20 prizes!</h1><img id=\"box\" src=\"img/sad/greenopenboxsadthumb.png\"></img></div>","key_press":null,"trial_type":"html-keyboard-response","trial_index":25,"time_elapsed":320044,"internal_node_id":"0.0-19.0-1.0"},{"rt":1163.74500002712,"stimulus":"<p>Choose a box,</p>","button_pressed":2,"trial_type":"html-button-response","trial_index":26,"time_elapsed":321210,"internal_node_id":"0.0-19.1-0.1"},{"rate":0.8145439008495844,"trial_type":"html-keyboard-response","trial_index":27,"time_elapsed":321210,"internal_node_id":"0.0-19.1-1.1"},{"rt":null,"stimulus":"<div style=\"background-color:#ff7157\"><h1 style=\"background-color:Tomato\">Bad luck! There was no prize in the box!</h1><h1 style=\"background-color:Tomato\">Remember, you need to keep going until you have 20 prizes!</h1><img id=\"box\" src=\"img/sad/purpleopenboxsadthumb.png\"></img></div>","key_press":null,"trial_type":"html-keyboard-response","trial_index":27,"time_elapsed":322719,"internal_node_id":"0.0-19.1-1.1"},{"rt":1671.7049998696893,"stimulus":"<p>Choose a box,</p>","button_pressed":3,"trial_type":"html-button-response","trial_index":28,"time_elapsed":324393,"internal_node_id":"0.0-19.2-0.2"},{"rate":0.1568527035981887,"trial_type":"html-keyboard-response","trial_index":29,"time_elapsed":324393,"internal_node_id":"0.0-19.2-1.2"},{"rt":null,"stimulus":"<div style=\"background-color:#ff7157\"><h1 style=\"background-color:Tomato\">Bad luck! There was no prize in the box!</h1><h1 style=\"background-color:Tomato\">Remember, you need to keep going until you have 20 prizes!</h1><img id=\"box\" src=\"img/sad/redopenboxsadthumb.png\"></img></div>","key_press":null,"trial_type":"html-keyboard-response","trial_index":29,"time_elapsed":325902,"internal_node_id":"0.0-19.2-1.2"},{"rt":2007.539999904111,"stimulus":"<p>Choose a box,</p>","button_pressed":0,"trial_type":"html-button-response","trial_index":30,"time_elapsed":327912,"internal_node_id":"0.0-19.3-0.3"},{"rate":0.29842665009353503,"trial_type":"html-keyboard-response","trial_index":31,"time_elapsed":327912,"internal_node_id":"0.0-19.3-1.3"},{"rt":null,"stimulus":"<div style=\"background-color:#ff7157\"><h1 style=\"background-color:Tomato\">Bad luck! There was no prize in the box!</h1><h1 style=\"background-color:Tomato\">Remember, you need to keep going until you have 20 prizes!</h1><img id=\"box\" src=\"img/sad/blueopenboxsadthumb.png\"></img></div>","key_press":null,"trial_type":"html-keyboard-response","trial_index":31,"time_elapsed":329438,"internal_node_id":"0.0-19.3-1.3"},{"rt":1471.2449999060482,"stimulus":"<p>Choose a box,</p>","button_pressed":3,"trial_type":"html-button-response","trial_index":32,"time_elapsed":330912,"internal_node_id":"0.0-19.4-0.4"},{"rate":0.1568527035981887,"trial_type":"html-keyboard-response","trial_index":33,"time_elapsed":330912,"internal_node_id":"0.0-19.4-1.4"},{"rt":null,"stimulus":"<div style=\"background-color:#ff7157\"><h1 style=\"background-color:Tomato\">Bad luck! There was no prize in the box!</h1><h1 style=\"background-color:Tomato\">Remember, you need to keep going until you have 20 prizes!</h1><img id=\"box\" src=\"img/sad/redopenboxsadthumb.png\"></img></div>","key_press":null,"trial_type":"html-keyboard-response","trial_index":33,"time_elapsed":332420,"internal_node_id":"0.0-19.4-1.4"},{"rt":1182.0950000546873,"stimulus":"<p>Choose a box,</p>","button_pressed":2,"trial_type":"html-button-response","trial_index":34,"time_elapsed":333604,"internal_node_id":"0.0-19.5-0.5"},{"rate":0.8145439008495844,"trial_type":"html-keyboard-response","trial_index":35,"time_elapsed":333604,"internal_node_id":"0.0-19.5-1.5"},{"rt":null,"stimulus":"<div style=\"background-color:#6dce98\"><h1 style=\"background-color:MediumSeaGreen\" >You won a prize! Well done!</h1><div style=\"background-color:#6dce98\"><h1 style=\"background-color:MediumSeaGreen\" >Only 19 left to go!</h1><img id=\"box\" src=\"img/prizes/bear.png\"></img><img id=\"box\" src=\"img/empty/purpleopenbox.png\"></img></div>","key_press":null,"trial_type":"html-keyboard-response","trial_index":35,"time_elapsed":335109,"internal_node_id":"0.0-19.5-1.5"},{"rt":1165.9299999009818,"stimulus":"<p>Choose a box,</p>","button_pressed":2,"trial_type":"html-button-response","trial_index":36,"time_elapsed":336277,"internal_node_id":"0.0-19.6-0.6"},{"rate":0.8145439008495844,"trial_type":"html-keyboard-response","trial_index":37,"time_elapsed":336277,"internal_node_id":"0.0-19.6-1.6"},{"rt":null,"stimulus":"<div style=\"background-color:#6dce98\"><h1 style=\"background-color:MediumSeaGreen\" >You won a prize! Well done!</h1><div style=\"background-color:#6dce98\"><h1 style=\"background-color:MediumSeaGreen\" >Only 18 left to go!</h1><img id=\"box\" src=\"img/prizes/ring.png\"></img><img id=\"box\" src=\"img/empty/purpleopenbox.png\"></img></div>","key_press":null,"trial_type":"html-keyboard-response","trial_index":37,"time_elapsed":337794,"internal_node_id":"0.0-19.6-1.6"},{"rt":951.5399998053908,"stimulus":"<p>Choose a box,</p>","button_pressed":2,"trial_type":"html-button-response","trial_index":38,"time_elapsed":338748,"internal_node_id":"0.0-19.7-0.7"},{"rate":0.8145439008495844,"trial_type":"html-keyboard-response","trial_index":39,"time_elapsed":338749,"internal_node_id":"0.0-19.7-1.7"},{"rt":null,"stimulus":"<div style=\"background-color:#6dce98\"><h1 style=\"background-color:MediumSeaGreen\" >You won a prize! Well done!</h1><div style=\"background-color:#6dce98\"><h1 style=\"background-color:MediumSeaGreen\" >Only 17 left to go!</h1><img id=\"box\" src=\"img/prizes/lolipop.png\"></img><img id=\"box\" src=\"img/empty/purpleopenbox.png\"></img></div>","key_press":null,"trial_type":"html-keyboard-response","trial_index":39,"time_elapsed":340251,"internal_node_id":"0.0-19.7-1.7"},{"rt":687.4949999619275,"stimulus":"<p>Choose a box,</p>","button_pressed":2,"trial_type":"html-button-response","trial_index":40,"time_elapsed":340941,"internal_node_id":"0.0-19.8-0.8"},{"rate":0.8145439008495844,"trial_type":"html-keyboard-response","trial_index":41,"time_elapsed":340941,"internal_node_id":"0.0-19.8-1.8"},{"rt":null,"stimulus":"<div style=\"background-color:#6dce98\"><h1 style=\"background-color:MediumSeaGreen\" >You won a prize! Well done!</h1><div style=\"background-color:#6dce98\"><h1 style=\"background-color:MediumSeaGreen\" >Only 16 left to go!</h1><img id=\"box\" src=\"img/prizes/ring.png\"></img><img id=\"box\" src=\"img/empty/purpleopenbox.png\"></img></div>","key_press":null,"trial_type":"html-keyboard-response","trial_index":41,"time_elapsed":342451,"internal_node_id":"0.0-19.8-1.8"},{"rt":679.5699999202043,"stimulus":"<p>Choose a box,</p>","button_pressed":2,"trial_type":"html-button-response","trial_index":42,"time_elapsed":343133,"internal_node_id":"0.0-19.9-0.9"},{"rate":0.8145439008495844,"trial_type":"html-keyboard-response","trial_index":43,"time_elapsed":343133,"internal_node_id":"0.0-19.9-1.9"},{"rt":null,"stimulus":"<div style=\"background-color:#6dce98\"><h1 style=\"background-color:MediumSeaGreen\" >You won a prize! Well done!</h1><div style=\"background-color:#6dce98\"><h1 style=\"background-color:MediumSeaGreen\" >Only 15 left to go!</h1><img id=\"box\" src=\"img/prizes/duck.png\"></img><img id=\"box\" src=\"img/empty/purpleopenbox.png\"></img></div>","key_press":null,"trial_type":"html-keyboard-response","trial_index":43,"time_elapsed":344639,"internal_node_id":"0.0-19.9-1.9"},{"rt":588.0799998994917,"stimulus":"<p>Choose a box,</p>","button_pressed":2,"trial_type":"html-button-response","trial_index":44,"time_elapsed":345229,"internal_node_id":"0.0-19.10-0.10"},{"rate":0.8145439008495844,"trial_type":"html-keyboard-response","trial_index":45,"time_elapsed":345229,"internal_node_id":"0.0-19.10-1.10"},{"rt":null,"stimulus":"<div style=\"background-color:#6dce98\"><h1 style=\"background-color:MediumSeaGreen\" >You won a prize! Well done!</h1><div style=\"background-color:#6dce98\"><h1 style=\"background-color:MediumSeaGreen\" >Only 14 left to go!</h1><img id=\"box\" src=\"img/prizes/beachball.png\"></img><img id=\"box\" src=\"img/empty/purpleopenbox.png\"></img></div>","key_press":null,"trial_type":"html-keyboard-response","trial_index":45,"time_elapsed":346735,"internal_node_id":"0.0-19.10-1.10"},{"rt":576.8699999898672,"stimulus":"<p>Choose a box,</p>","button_pressed":2,"trial_type":"html-button-response","trial_index":46,"time_elapsed":347315,"internal_node_id":"0.0-19.11-0.11"},{"rate":0.8145439008495844,"trial_type":"html-keyboard-response","trial_index":47,"time_elapsed":347315,"internal_node_id":"0.0-19.11-1.11"},{"rt":null,"stimulus":"<div style=\"background-color:#6dce98\"><h1 style=\"background-color:MediumSeaGreen\" >You won a prize! Well done!</h1><div style=\"background-color:#6dce98\"><h1 style=\"background-color:MediumSeaGreen\" >Only 13 left to go!</h1><img id=\"box\" src=\"img/prizes/beachball.png\"></img><img id=\"box\" src=\"img/empty/purpleopenbox.png\"></img></div>","key_press":null,"trial_type":"html-keyboard-response","trial_index":47,"time_elapsed":348822,"internal_node_id":"0.0-19.11-1.11"},{"rt":587.88500004448,"stimulus":"<p>Choose a box,</p>","button_pressed":2,"trial_type":"html-button-response","trial_index":48,"time_elapsed":349412,"internal_node_id":"0.0-19.12-0.12"},{"rate":0.8145439008495844,"trial_type":"html-keyboard-response","trial_index":49,"time_elapsed":349412,"internal_node_id":"0.0-19.12-1.12"},{"rt":null,"stimulus":"<div style=\"background-color:#ff7157\"><h1 style=\"background-color:Tomato\">Bad luck! There was no prize in the box!</h1><h1 style=\"background-color:Tomato\">Remember, you need to keep going until you have 20 prizes!</h1><img id=\"box\" src=\"img/sad/purpleopenboxsadthumb.png\"></img></div>","key_press":null,"trial_type":"html-keyboard-response","trial_index":49,"time_elapsed":350919,"internal_node_id":"0.0-19.12-1.12"},{"rt":1008.3449999801815,"stimulus":"<p>Choose a box,</p>","button_pressed":1,"trial_type":"html-button-response","trial_index":50,"time_elapsed":351931,"internal_node_id":"0.0-19.13-0.13"},{"rate":0.5785806235191214,"trial_type":"html-keyboard-response","trial_index":51,"time_elapsed":351931,"internal_node_id":"0.0-19.13-1.13"},{"rt":null,"stimulus":"<div style=\"background-color:#6dce98\"><h1 style=\"background-color:MediumSeaGreen\" >You won a prize! Well done!</h1><div style=\"background-color:#6dce98\"><h1 style=\"background-color:MediumSeaGreen\" >Only 12 left to go!</h1><img id=\"box\" src=\"img/prizes/lolipop.png\"></img><img id=\"box\" src=\"img/empty/greenopenbox.png\"></img></div>","key_press":null,"trial_type":"html-keyboard-response","trial_index":51,"time_elapsed":353435,"internal_node_id":"0.0-19.13-1.13"},{"rt":617.534999968484,"stimulus":"<p>Choose a box,</p>","button_pressed":1,"trial_type":"html-button-response","trial_index":52,"time_elapsed":354056,"internal_node_id":"0.0-19.14-0.14"},{"rate":0.5785806235191214,"trial_type":"html-keyboard-response","trial_index":53,"time_elapsed":354056,"internal_node_id":"0.0-19.14-1.14"},{"rt":null,"stimulus":"<div style=\"background-color:#6dce98\"><h1 style=\"background-color:MediumSeaGreen\" >You won a prize! Well done!</h1><div style=\"background-color:#6dce98\"><h1 style=\"background-color:MediumSeaGreen\" >Only 11 left to go!</h1><img id=\"box\" src=\"img/prizes/ring.png\"></img><img id=\"box\" src=\"img/empty/greenopenbox.png\"></img></div>","key_press":null,"trial_type":"html-keyboard-response","trial_index":53,"time_elapsed":355560,"internal_node_id":"0.0-19.14-1.14"},{"rt":590.3899997938424,"stimulus":"<p>Choose a box,</p>","button_pressed":1,"trial_type":"html-button-response","trial_index":54,"time_elapsed":356152,"internal_node_id":"0.0-19.15-0.15"},{"rate":0.5785806235191214,"trial_type":"html-keyboard-response","trial_index":55,"time_elapsed":356152,"internal_node_id":"0.0-19.15-1.15"},{"rt":null,"stimulus":"<div style=\"background-color:#6dce98\"><h1 style=\"background-color:MediumSeaGreen\" >You won a prize! Well done!</h1><div style=\"background-color:#6dce98\"><h1 style=\"background-color:MediumSeaGreen\" >Only 10 left to go!</h1><img id=\"box\" src=\"img/prizes/choc.png\"></img><img id=\"box\" src=\"img/empty/greenopenbox.png\"></img></div>","key_press":null,"trial_type":"html-keyboard-response","trial_index":55,"time_elapsed":357655,"internal_node_id":"0.0-19.15-1.15"},{"rt":676.3649999629706,"stimulus":"<p>Choose a box,</p>","button_pressed":1,"trial_type":"html-button-response","trial_index":56,"time_elapsed":358334,"internal_node_id":"0.0-19.16-0.16"},{"rate":0.5785806235191214,"trial_type":"html-keyboard-response","trial_index":57,"time_elapsed":358335,"internal_node_id":"0.0-19.16-1.16"},{"rt":null,"stimulus":"<div style=\"background-color:#ff7157\"><h1 style=\"background-color:Tomato\">Bad luck! There was no prize in the box!</h1><h1 style=\"background-color:Tomato\">Remember, you need to keep going until you have 20 prizes!</h1><img id=\"box\" src=\"img/sad/greenopenboxsadthumb.png\"></img></div>","key_press":null,"trial_type":"html-keyboard-response","trial_index":57,"time_elapsed":359843,"internal_node_id":"0.0-19.16-1.16"},{"rt":700.9099998977035,"stimulus":"<p>Choose a box,</p>","button_pressed":3,"trial_type":"html-button-response","trial_index":58,"time_elapsed":360546,"internal_node_id":"0.0-19.17-0.17"},{"rate":0.1568527035981887,"trial_type":"html-keyboard-response","trial_index":59,"time_elapsed":360546,"internal_node_id":"0.0-19.17-1.17"},{"rt":null,"stimulus":"<div style=\"background-color:#6dce98\"><h1 style=\"background-color:MediumSeaGreen\" >You won a prize! Well done!</h1><div style=\"background-color:#6dce98\"><h1 style=\"background-color:MediumSeaGreen\" >Only 9 left to go!</h1><img id=\"box\" src=\"img/prizes/coins.png\"></img><img id=\"box\" src=\"img/empty/redopenbox.png\"></img></div>","key_press":null,"trial_type":"html-keyboard-response","trial_index":59,"time_elapsed":362060,"internal_node_id":"0.0-19.17-1.17"},{"rt":663.3900001179427,"stimulus":"<p>Choose a box,</p>","button_pressed":3,"trial_type":"html-button-response","trial_index":60,"time_elapsed":362729,"internal_node_id":"0.0-19.18-0.18"},{"rate":0.1568527035981887,"trial_type":"html-keyboard-response","trial_index":61,"time_elapsed":362729,"internal_node_id":"0.0-19.18-1.18"},{"rt":null,"stimulus":"<div style=\"background-color:#ff7157\"><h1 style=\"background-color:Tomato\">Bad luck! There was no prize in the box!</h1><h1 style=\"background-color:Tomato\">Remember, you need to keep going until you have 20 prizes!</h1><img id=\"box\" src=\"img/sad/redopenboxsadthumb.png\"></img></div>","key_press":null,"trial_type":"html-keyboard-response","trial_index":61,"time_elapsed":364237,"internal_node_id":"0.0-19.18-1.18"},{"rt":833.4749999921769,"stimulus":"<p>Choose a box,</p>","button_pressed":0,"trial_type":"html-button-response","trial_index":62,"time_elapsed":365075,"internal_node_id":"0.0-19.19-0.19"},{"rate":0.29842665009353503,"trial_type":"html-keyboard-response","trial_index":63,"time_elapsed":365075,"internal_node_id":"0.0-19.19-1.19"},{"rt":null,"stimulus":"<div style=\"background-color:#6dce98\"><h1 style=\"background-color:MediumSeaGreen\" >You won a prize! Well done!</h1><div style=\"background-color:#6dce98\"><h1 style=\"background-color:MediumSeaGreen\" >Only 8 left to go!</h1><img id=\"box\" src=\"img/prizes/ring.png\"></img><img id=\"box\" src=\"img/empty/blueopenbox.png\"></img></div>","key_press":null,"trial_type":"html-keyboard-response","trial_index":63,"time_elapsed":366581,"internal_node_id":"0.0-19.19-1.19"},{"rt":625.2199998125434,"stimulus":"<p>Choose a box,</p>","button_pressed":0,"trial_type":"html-button-response","trial_index":64,"time_elapsed":367209,"internal_node_id":"0.0-19.20-0.20"},{"rate":0.29842665009353503,"trial_type":"html-keyboard-response","trial_index":65,"time_elapsed":367209,"internal_node_id":"0.0-19.20-1.20"},{"rt":null,"stimulus":"<div style=\"background-color:#ff7157\"><h1 style=\"background-color:Tomato\">Bad luck! There was no prize in the box!</h1><h1 style=\"background-color:Tomato\">Remember, you need to keep going until you have 20 prizes!</h1><img id=\"box\" src=\"img/sad/blueopenboxsadthumb.png\"></img></div>","key_press":null,"trial_type":"html-keyboard-response","trial_index":65,"time_elapsed":368715,"internal_node_id":"0.0-19.20-1.20"},{"rt":886.0549998935312,"stimulus":"<p>Choose a box,</p>","button_pressed":2,"trial_type":"html-button-response","trial_index":66,"time_elapsed":369603,"internal_node_id":"0.0-19.21-0.21"},{"rate":0.8145439008495844,"trial_type":"html-keyboard-response","trial_index":67,"time_elapsed":369603,"internal_node_id":"0.0-19.21-1.21"},{"rt":null,"stimulus":"<div style=\"background-color:#6dce98\"><h1 style=\"background-color:MediumSeaGreen\" >You won a prize! Well done!</h1><div style=\"background-color:#6dce98\"><h1 style=\"background-color:MediumSeaGreen\" >Only 7 left to go!</h1><img id=\"box\" src=\"img/prizes/ring.png\"></img><img id=\"box\" src=\"img/empty/purpleopenbox.png\"></img></div>","key_press":null,"trial_type":"html-keyboard-response","trial_index":67,"time_elapsed":371111,"internal_node_id":"0.0-19.21-1.21"},{"rt":595.0749998446554,"stimulus":"<p>Choose a box,</p>","button_pressed":2,"trial_type":"html-button-response","trial_index":68,"time_elapsed":371709,"internal_node_id":"0.0-19.22-0.22"},{"rate":0.8145439008495844,"trial_type":"html-keyboard-response","trial_index":69,"time_elapsed":371709,"internal_node_id":"0.0-19.22-1.22"},{"rt":null,"stimulus":"<div style=\"background-color:#ff7157\"><h1 style=\"background-color:Tomato\">Bad luck! There was no prize in the box!</h1><h1 style=\"background-color:Tomato\">Remember, you need to keep going until you have 20 prizes!</h1><img id=\"box\" src=\"img/sad/purpleopenboxsadthumb.png\"></img></div>","key_press":null,"trial_type":"html-keyboard-response","trial_index":69,"time_elapsed":373223,"internal_node_id":"0.0-19.22-1.22"},{"rt":855.7599999476224,"stimulus":"<p>Choose a box,</p>","button_pressed":3,"trial_type":"html-button-response","trial_index":70,"time_elapsed":374084,"internal_node_id":"0.0-19.23-0.23"},{"rate":0.1568527035981887,"trial_type":"html-keyboard-response","trial_index":71,"time_elapsed":374084,"internal_node_id":"0.0-19.23-1.23"},{"rt":null,"stimulus":"<div style=\"background-color:#ff7157\"><h1 style=\"background-color:Tomato\">Bad luck! There was no prize in the box!</h1><h1 style=\"background-color:Tomato\">Remember, you need to keep going until you have 20 prizes!</h1><img id=\"box\" src=\"img/sad/redopenboxsadthumb.png\"></img></div>","key_press":null,"trial_type":"html-keyboard-response","trial_index":71,"time_elapsed":375601,"internal_node_id":"0.0-19.23-1.23"},{"rt":971.0200000554323,"stimulus":"<p>Choose a box,</p>","button_pressed":1,"trial_type":"html-button-response","trial_index":72,"time_elapsed":376574,"internal_node_id":"0.0-19.24-0.24"},{"rate":0.5785806235191214,"trial_type":"html-keyboard-response","trial_index":73,"time_elapsed":376574,"internal_node_id":"0.0-19.24-1.24"},{"rt":null,"stimulus":"<div style=\"background-color:#ff7157\"><h1 style=\"background-color:Tomato\">Bad luck! There was no prize in the box!</h1><h1 style=\"background-color:Tomato\">Remember, you need to keep going until you have 20 prizes!</h1><img id=\"box\" src=\"img/sad/greenopenboxsadthumb.png\"></img></div>","key_press":null,"trial_type":"html-keyboard-response","trial_index":73,"time_elapsed":378083,"internal_node_id":"0.0-19.24-1.24"},{"rt":633.075000019744,"stimulus":"<p>Choose a box,</p>","button_pressed":0,"trial_type":"html-button-response","trial_index":74,"time_elapsed":378718,"internal_node_id":"0.0-19.25-0.25"},{"rate":0.29842665009353503,"trial_type":"html-keyboard-response","trial_index":75,"time_elapsed":378718,"internal_node_id":"0.0-19.25-1.25"},{"rt":null,"stimulus":"<div style=\"background-color:#ff7157\"><h1 style=\"background-color:Tomato\">Bad luck! There was no prize in the box!</h1><h1 style=\"background-color:Tomato\">Remember, you need to keep going until you have 20 prizes!</h1><img id=\"box\" src=\"img/sad/blueopenboxsadthumb.png\"></img></div>","key_press":null,"trial_type":"html-keyboard-response","trial_index":75,"time_elapsed":380222,"internal_node_id":"0.0-19.25-1.25"},{"rt":917.2450001351535,"stimulus":"<p>Choose a box,</p>","button_pressed":2,"trial_type":"html-button-response","trial_index":76,"time_elapsed":381141,"internal_node_id":"0.0-19.26-0.26"},{"rate":0.8145439008495844,"trial_type":"html-keyboard-response","trial_index":77,"time_elapsed":381141,"internal_node_id":"0.0-19.26-1.26"},{"rt":null,"stimulus":"<div style=\"background-color:#6dce98\"><h1 style=\"background-color:MediumSeaGreen\" >You won a prize! Well done!</h1><div style=\"background-color:#6dce98\"><h1 style=\"background-color:MediumSeaGreen\" >Only 6 left to go!</h1><img id=\"box\" src=\"img/prizes/coins.png\"></img><img id=\"box\" src=\"img/empty/purpleopenbox.png\"></img></div>","key_press":null,"trial_type":"html-keyboard-response","trial_index":77,"time_elapsed":382648,"internal_node_id":"0.0-19.26-1.26"},{"rt":586.7449999786913,"stimulus":"<p>Choose a box,</p>","button_pressed":2,"trial_type":"html-button-response","trial_index":78,"time_elapsed":383237,"internal_node_id":"0.0-19.27-0.27"},{"rate":0.8145439008495844,"trial_type":"html-keyboard-response","trial_index":79,"time_elapsed":383237,"internal_node_id":"0.0-19.27-1.27"},{"rt":null,"stimulus":"<div style=\"background-color:#6dce98\"><h1 style=\"background-color:MediumSeaGreen\" >You won a prize! Well done!</h1><div style=\"background-color:#6dce98\"><h1 style=\"background-color:MediumSeaGreen\" >Only 5 left to go!</h1><img id=\"box\" src=\"img/prizes/beachball.png\"></img><img id=\"box\" src=\"img/empty/purpleopenbox.png\"></img></div>","key_press":null,"trial_type":"html-keyboard-response","trial_index":79,"time_elapsed":384741,"internal_node_id":"0.0-19.27-1.27"},{"rt":608.6600001435727,"stimulus":"<p>Choose a box,</p>","button_pressed":2,"trial_type":"html-button-response","trial_index":80,"time_elapsed":385352,"internal_node_id":"0.0-19.28-0.28"},{"rate":0.8145439008495844,"trial_type":"html-keyboard-response","trial_index":81,"time_elapsed":385352,"internal_node_id":"0.0-19.28-1.28"},{"rt":null,"stimulus":"<div style=\"background-color:#ff7157\"><h1 style=\"background-color:Tomato\">Bad luck! There was no prize in the box!</h1><h1 style=\"background-color:Tomato\">Remember, you need to keep going until you have 20 prizes!</h1><img id=\"box\" src=\"img/sad/purpleopenboxsadthumb.png\"></img></div>","key_press":null,"trial_type":"html-keyboard-response","trial_index":81,"time_elapsed":386854,"internal_node_id":"0.0-19.28-1.28"},{"rt":822.9449999053031,"stimulus":"<p>Choose a box,</p>","button_pressed":1,"trial_type":"html-button-response","trial_index":82,"time_elapsed":387679,"internal_node_id":"0.0-19.29-0.29"},{"rate":0.5785806235191214,"trial_type":"html-keyboard-response","trial_index":83,"time_elapsed":387679,"internal_node_id":"0.0-19.29-1.29"},{"rt":null,"stimulus":"<div style=\"background-color:#6dce98\"><h1 style=\"background-color:MediumSeaGreen\" >You won a prize! Well done!</h1><div style=\"background-color:#6dce98\"><h1 style=\"background-color:MediumSeaGreen\" >Only 4 left to go!</h1><img id=\"box\" src=\"img/prizes/ring.png\"></img><img id=\"box\" src=\"img/empty/greenopenbox.png\"></img></div>","key_press":null,"trial_type":"html-keyboard-response","trial_index":83,"time_elapsed":389197,"internal_node_id":"0.0-19.29-1.29"},{"rt":624.5450000278652,"stimulus":"<p>Choose a box,</p>","button_pressed":1,"trial_type":"html-button-response","trial_index":84,"time_elapsed":389823,"internal_node_id":"0.0-19.30-0.30"},{"rate":0.5785806235191214,"trial_type":"html-keyboard-response","trial_index":85,"time_elapsed":389823,"internal_node_id":"0.0-19.30-1.30"},{"rt":null,"stimulus":"<div style=\"background-color:#ff7157\"><h1 style=\"background-color:Tomato\">Bad luck! There was no prize in the box!</h1><h1 style=\"background-color:Tomato\">Remember, you need to keep going until you have 20 prizes!</h1><img id=\"box\" src=\"img/sad/greenopenboxsadthumb.png\"></img></div>","key_press":null,"trial_type":"html-keyboard-response","trial_index":85,"time_elapsed":391325,"internal_node_id":"0.0-19.30-1.30"},{"rt":678.2700000330806,"stimulus":"<p>Choose a box,</p>","button_pressed":0,"trial_type":"html-button-response","trial_index":86,"time_elapsed":392006,"internal_node_id":"0.0-19.31-0.31"},{"rate":0.29842665009353503,"trial_type":"html-keyboard-response","trial_index":87,"time_elapsed":392006,"internal_node_id":"0.0-19.31-1.31"},{"rt":null,"stimulus":"<div style=\"background-color:#ff7157\"><h1 style=\"background-color:Tomato\">Bad luck! There was no prize in the box!</h1><h1 style=\"background-color:Tomato\">Remember, you need to keep going until you have 20 prizes!</h1><img id=\"box\" src=\"img/sad/blueopenboxsadthumb.png\"></img></div>","key_press":null,"trial_type":"html-keyboard-response","trial_index":87,"time_elapsed":393510,"internal_node_id":"0.0-19.31-1.31"},{"rt":685.9649999532849,"stimulus":"<p>Choose a box,</p>","button_pressed":3,"trial_type":"html-button-response","trial_index":88,"time_elapsed":394198,"internal_node_id":"0.0-19.32-0.32"},{"rate":0.1568527035981887,"trial_type":"html-keyboard-response","trial_index":89,"time_elapsed":394198,"internal_node_id":"0.0-19.32-1.32"},{"rt":null,"stimulus":"<div style=\"background-color:#ff7157\"><h1 style=\"background-color:Tomato\">Bad luck! There was no prize in the box!</h1><h1 style=\"background-color:Tomato\">Remember, you need to keep going until you have 20 prizes!</h1><img id=\"box\" src=\"img/sad/redopenboxsadthumb.png\"></img></div>","key_press":null,"trial_type":"html-keyboard-response","trial_index":89,"time_elapsed":395707,"internal_node_id":"0.0-19.32-1.32"},{"rt":832.8700000420213,"stimulus":"<p>Choose a box,</p>","button_pressed":2,"trial_type":"html-button-response","trial_index":90,"time_elapsed":396544,"internal_node_id":"0.0-19.33-0.33"},{"rate":0.8145439008495844,"trial_type":"html-keyboard-response","trial_index":91,"time_elapsed":396544,"internal_node_id":"0.0-19.33-1.33"},{"rt":null,"stimulus":"<div style=\"background-color:#6dce98\"><h1 style=\"background-color:MediumSeaGreen\" >You won a prize! Well done!</h1><div style=\"background-color:#6dce98\"><h1 style=\"background-color:MediumSeaGreen\" >Only 3 left to go!</h1><img id=\"box\" src=\"img/prizes/yoyo.png\"></img><img id=\"box\" src=\"img/empty/purpleopenbox.png\"></img></div>","key_press":null,"trial_type":"html-keyboard-response","trial_index":91,"time_elapsed":398052,"internal_node_id":"0.0-19.33-1.33"},{"rt":690.9650000743568,"stimulus":"<p>Choose a box,</p>","button_pressed":2,"trial_type":"html-button-response","trial_index":92,"time_elapsed":398746,"internal_node_id":"0.0-19.34-0.34"},{"rate":0.8145439008495844,"trial_type":"html-keyboard-response","trial_index":93,"time_elapsed":398746,"internal_node_id":"0.0-19.34-1.34"},{"rt":null,"stimulus":"<div style=\"background-color:#6dce98\"><h1 style=\"background-color:MediumSeaGreen\" >You won a prize! Well done!</h1><div style=\"background-color:#6dce98\"><h1 style=\"background-color:MediumSeaGreen\" >Only 2 left to go!</h1><img id=\"box\" src=\"img/prizes/flowers.png\"></img><img id=\"box\" src=\"img/empty/purpleopenbox.png\"></img></div>","key_press":null,"trial_type":"html-keyboard-response","trial_index":93,"time_elapsed":400263,"internal_node_id":"0.0-19.34-1.34"},{"rt":642.6450000144541,"stimulus":"<p>Choose a box,</p>","button_pressed":2,"trial_type":"html-button-response","trial_index":94,"time_elapsed":400909,"internal_node_id":"0.0-19.35-0.35"},{"rate":0.8145439008495844,"trial_type":"html-keyboard-response","trial_index":95,"time_elapsed":400909,"internal_node_id":"0.0-19.35-1.35"},{"rt":null,"stimulus":"<div style=\"background-color:#6dce98\"><h1 style=\"background-color:MediumSeaGreen\" >You won a prize! Well done!</h1><div style=\"background-color:#6dce98\"><h1 style=\"background-color:MediumSeaGreen\" >Only 1 left to go!</h1><img id=\"box\" src=\"img/prizes/lolipop.png\"></img><img id=\"box\" src=\"img/empty/purpleopenbox.png\"></img></div>","key_press":null,"trial_type":"html-keyboard-response","trial_index":95,"time_elapsed":402414,"internal_node_id":"0.0-19.35-1.35"},{"rt":674.8149998020381,"stimulus":"<p>Choose a box,</p>","button_pressed":2,"trial_type":"html-button-response","trial_index":96,"time_elapsed":403091,"internal_node_id":"0.0-19.36-0.36"},{"rate":0.8145439008495844,"trial_type":"html-keyboard-response","trial_index":97,"time_elapsed":403092,"internal_node_id":"0.0-19.36-1.36"},{"rt":null,"stimulus":"<div style=\"background-color:#6dce98\"><h1 style=\"background-color:MediumSeaGreen\" >You won a prize! Well done!</h1><div style=\"background-color:#6dce98\"><h1 style=\"background-color:MediumSeaGreen\" >Only 0 left to go!</h1><img id=\"box\" src=\"img/prizes/coins.png\"></img><img id=\"box\" src=\"img/empty/purpleopenbox.png\"></img></div>","key_press":null,"trial_type":"html-keyboard-response","trial_index":97,"time_elapsed":404604,"internal_node_id":"0.0-19.36-1.36"},{"rt":47437.45000008494,"responses":"{\"Q0\":\"it was interesting\",\"Q1\":\"whenever a box would work I would keep on trying the same one until it didn't and then I'd try one next to it and do the same.\"}","trial_type":"survey-text","trial_index":98,"time_elapsed":452061,"internal_node_id":"0.0-20.0"}]