[
    {
        "view_history": "[{\"page_index\":0,\"viewing_time\":8648.649999988265},{\"page_index\":1,\"viewing_time\":8367.549999966286},{\"page_index\":2,\"viewing_time\":8705.184999969788},{\"page_index\":3,\"viewing_time\":6580.9350000927225},{\"page_index\":4,\"viewing_time\":3227.0399999106303},{\"page_index\":5,\"viewing_time\":3473.7850000383332}]",
        "rt": 39003.93000000622,
        "trial_type": "instructions",
        "trial_index": 0,
        "time_elapsed": 39006,
        "internal_node_id": "0.0-0.0"
    },
    {
        "rt": 7242.7199999801815,
        "responses": "{\"Q0\":\"Yes\",\"Q1\":\"Yes\",\"Q2\":\"Yes\"}",
        "question_order": "[0,1,2]",
        "trial_type": "survey-multi-choice",
        "trial_index": 1,
        "time_elapsed": 46251,
        "internal_node_id": "0.0-1.0-0.0"
    },
    {
        "rt": 10284.169999998994,
        "responses": "{\"Q0\":\"Yes\",\"Q1\":\"Yes\",\"Q2\":\"Yes\"}",
        "question_order": "[0,1,2]",
        "trial_type": "survey-multi-choice",
        "trial_index": 2,
        "time_elapsed": 56537,
        "internal_node_id": "0.0-2.0-0.0"
    },
    {
        "rt": 2220.780000090599,
        "responses": "{\"Q0\":\"5da02b7e9937b70018ff8657\"}",
        "trial_type": "survey-text",
        "trial_index": 3,
        "time_elapsed": 58761,
        "internal_node_id": "0.0-3.0"
    },
    {
        "rt": 2804.879999952391,
        "responses": "{\"Q0\":\"Male\",\"Q1\":\"18-25\"}",
        "question_order": "[0,1]",
        "trial_type": "survey-multi-choice",
        "trial_index": 4,
        "time_elapsed": 61567,
        "internal_node_id": "0.0-4.0"
    },
    {
        "rt": 4448.464999906719,
        "responses": "{\"Q0\":\"\"}",
        "trial_type": "survey-text",
        "trial_index": 5,
        "time_elapsed": 66017,
        "internal_node_id": "0.0-5.0"
    },
    {
        "view_history": "[{\"page_index\":0,\"viewing_time\":3079.8749999376014}]",
        "rt": 3080.089999944903,
        "trial_type": "instructions",
        "trial_index": 6,
        "time_elapsed": 69098,
        "internal_node_id": "0.0-6.0"
    },
    {
        "rt": 11138.35999998264,
        "responses": "{\"Interested\":3,\"Distressed\":2,\"Excited\":4,\"Upset\":2}",
        "question_order": "[0,1,2,3]",
        "trial_type": "survey-likert",
        "trial_index": 7,
        "time_elapsed": 80238,
        "internal_node_id": "0.0-7.0"
    },
    {
        "rt": 7143.755000084639,
        "responses": "{\"Strong\":3,\"Guilty\":2,\"Scared\":2,\"Hostile\":3}",
        "question_order": "[0,1,2,3]",
        "trial_type": "survey-likert",
        "trial_index": 8,
        "time_elapsed": 87384,
        "internal_node_id": "0.0-8.0"
    },
    {
        "rt": 6969.5449999999255,
        "responses": "{\"Enthusiastic\":3,\"Proud\":3,\"Irritable\":3,\"Alert\":3}",
        "question_order": "[0,1,2,3]",
        "trial_type": "survey-likert",
        "trial_index": 9,
        "time_elapsed": 94355,
        "internal_node_id": "0.0-9.0"
    },
    {
        "rt": 4524.850000045262,
        "responses": "{\"Ashamed\":2,\"Inspired\":3,\"Nervous\":3,\"Determined\":3}",
        "question_order": "[0,1,2,3]",
        "trial_type": "survey-likert",
        "trial_index": 10,
        "time_elapsed": 98882,
        "internal_node_id": "0.0-10.0"
    },
    {
        "rt": 4254.360000020824,
        "responses": "{\"Attentive\":3,\"Jittery\":2,\"Active\":3,\"Afraid\":3}",
        "question_order": "[0,1,2,3]",
        "trial_type": "survey-likert",
        "trial_index": 11,
        "time_elapsed": 103138,
        "internal_node_id": "0.0-11.0"
    },
    {
        "rt": 15551.76499998197,
        "responses": "{\"Q0\":0,\"Q1\":0,\"Q2\":1,\"Q3\":1}",
        "question_order": "[0,1,2,3]",
        "trial_type": "survey-likert",
        "trial_index": 12,
        "time_elapsed": 118691,
        "internal_node_id": "0.0-12.0"
    },
    {
        "rt": 8640.754999942146,
        "responses": "{\"Q0\":0,\"Q1\":0,\"Q2\":0,\"Q3\":0}",
        "question_order": "[0,1,2,3]",
        "trial_type": "survey-likert",
        "trial_index": 13,
        "time_elapsed": 127334,
        "internal_node_id": "0.0-13.0"
    },
    {
        "rt": 6462.100000004284,
        "responses": "{\"Q0\":1,\"Q1\":1,\"Q2\":1,\"Q3\":1}",
        "question_order": "[0,1,2,3]",
        "trial_type": "survey-likert",
        "trial_index": 14,
        "time_elapsed": 133797,
        "internal_node_id": "0.0-14.0"
    },
    {
        "rt": 10449.499999987893,
        "responses": "{\"Q0\":0,\"Q1\":1,\"Q2\":0}",
        "question_order": "[0,1,2]",
        "trial_type": "survey-likert",
        "trial_index": 15,
        "time_elapsed": 144248,
        "internal_node_id": "0.0-15.0"
    },
    {
        "view_history": "[{\"page_index\":0,\"viewing_time\":1739.2799999797717},{\"page_index\":1,\"viewing_time\":7863.159999949858},{\"page_index\":2,\"viewing_time\":6332.440000027418}]",
        "rt": 15935.609999927692,
        "trial_type": "instructions",
        "trial_index": 16,
        "time_elapsed": 160193,
        "internal_node_id": "0.0-16.0"
    },
    {
        "rt": 1509.5150000415742,
        "stimulus": "<p>Choose a box,</p>",
        "button_pressed": 0,
        "trial_type": "html-button-response",
        "trial_index": 17,
        "time_elapsed": 161704,
        "internal_node_id": "0.0-17.0-0.0"
    },
    {
        "rate": 0.7648026825758116,
        "trial_type": "html-keyboard-response",
        "trial_index": 18,
        "time_elapsed": 161705,
        "internal_node_id": "0.0-17.0-1.0"
    },
    {
        "rt": null,
        "stimulus": "<div style=\"background-color:#ff7157\"><h1 style=\"background-color:Tomato\">Bad luck! There was no prize in the box!</h1><h1 style=\"background-color:Tomato\">Remember, you need to keep going until you have 20 prizes!</h1><img id=\"box\" src=\"img/sad/blueopenboxsadthumb.png\"></img></div>",
        "key_press": null,
        "trial_type": "html-keyboard-response",
        "trial_index": 18,
        "time_elapsed": 163210,
        "internal_node_id": "0.0-17.0-1.0"
    },
    {
        "rt": 1082.7649999409914,
        "stimulus": "<p>Choose a box,</p>",
        "button_pressed": 1,
        "trial_type": "html-button-response",
        "trial_index": 19,
        "time_elapsed": 164296,
        "internal_node_id": "0.0-17.0-0.1"
    },
    {
        "rate": 0.6045546822890573,
        "trial_type": "html-keyboard-response",
        "trial_index": 20,
        "time_elapsed": 164296,
        "internal_node_id": "0.0-17.0-1.1"
    },
    {
        "rt": null,
        "stimulus": "<div style=\"background-color:#6dce98\"><h1 style=\"background-color:MediumSeaGreen\" >You won a prize! Well done!</h1><div style=\"background-color:#6dce98\"><h1 style=\"background-color:MediumSeaGreen\" >Only 19 left to go!</h1><img id=\"box\" src=\"img/prizes/bear.png\"></img><img id=\"box\" src=\"img/empty/greenopenbox.png\"></img></div>",
        "key_press": null,
        "trial_type": "html-keyboard-response",
        "trial_index": 20,
        "time_elapsed": 165804,
        "internal_node_id": "0.0-17.0-1.1"
    },
    {
        "rt": 855.6099999696016,
        "stimulus": "<p>Choose a box,</p>",
        "button_pressed": 2,
        "trial_type": "html-button-response",
        "trial_index": 21,
        "time_elapsed": 166661,
        "internal_node_id": "0.0-17.0-0.2"
    },
    {
        "rate": 0.4556919915113931,
        "trial_type": "html-keyboard-response",
        "trial_index": 22,
        "time_elapsed": 166661,
        "internal_node_id": "0.0-17.0-1.2"
    },
    {
        "rt": null,
        "stimulus": "<div style=\"background-color:#6dce98\"><h1 style=\"background-color:MediumSeaGreen\" >You won a prize! Well done!</h1><div style=\"background-color:#6dce98\"><h1 style=\"background-color:MediumSeaGreen\" >Only 18 left to go!</h1><img id=\"box\" src=\"img/prizes/ring.png\"></img><img id=\"box\" src=\"img/empty/purpleopenbox.png\"></img></div>",
        "key_press": null,
        "trial_type": "html-keyboard-response",
        "trial_index": 22,
        "time_elapsed": 168162,
        "internal_node_id": "0.0-17.0-1.2"
    },
    {
        "view_history": "[{\"page_index\":0,\"viewing_time\":5439.535000012256}]",
        "rt": 5439.785000053234,
        "trial_type": "instructions",
        "trial_index": 23,
        "time_elapsed": 173603,
        "internal_node_id": "0.0-18.0"
    },
    {
        "rt": 1520.7850000588223,
        "stimulus": "<p>Choose a box,</p>",
        "button_pressed": 1,
        "trial_type": "html-button-response",
        "trial_index": 24,
        "time_elapsed": 175125,
        "internal_node_id": "0.0-19.0-0.0"
    },
    {
        "rate": 0.6697337753934552,
        "trial_type": "html-keyboard-response",
        "trial_index": 25,
        "time_elapsed": 175126,
        "internal_node_id": "0.0-19.0-1.0"
    },
    {
        "rt": null,
        "stimulus": "<div style=\"background-color:#6dce98\"><h1 style=\"background-color:MediumSeaGreen\" >You won a prize! Well done!</h1><div style=\"background-color:#6dce98\"><h1 style=\"background-color:MediumSeaGreen\" >Only 19 left to go!</h1><img id=\"box\" src=\"img/prizes/yoyo.png\"></img><img id=\"box\" src=\"img/empty/greenopenbox.png\"></img></div>",
        "key_press": null,
        "trial_type": "html-keyboard-response",
        "trial_index": 25,
        "time_elapsed": 176627,
        "internal_node_id": "0.0-19.0-1.0"
    },
    {
        "rt": 653.9600000251085,
        "stimulus": "<p>Choose a box,</p>",
        "button_pressed": 2,
        "trial_type": "html-button-response",
        "trial_index": 26,
        "time_elapsed": 177283,
        "internal_node_id": "0.0-19.1-0.1"
    },
    {
        "rate": 0.5602098404282831,
        "trial_type": "html-keyboard-response",
        "trial_index": 27,
        "time_elapsed": 177283,
        "internal_node_id": "0.0-19.1-1.1"
    },
    {
        "rt": null,
        "stimulus": "<div style=\"background-color:#6dce98\"><h1 style=\"background-color:MediumSeaGreen\" >You won a prize! Well done!</h1><div style=\"background-color:#6dce98\"><h1 style=\"background-color:MediumSeaGreen\" >Only 18 left to go!</h1><img id=\"box\" src=\"img/prizes/bear.png\"></img><img id=\"box\" src=\"img/empty/purpleopenbox.png\"></img></div>",
        "key_press": null,
        "trial_type": "html-keyboard-response",
        "trial_index": 27,
        "time_elapsed": 178785,
        "internal_node_id": "0.0-19.1-1.1"
    },
    {
        "rt": 373.810000019148,
        "stimulus": "<p>Choose a box,</p>",
        "button_pressed": 3,
        "trial_type": "html-button-response",
        "trial_index": 28,
        "time_elapsed": 179160,
        "internal_node_id": "0.0-19.2-0.2"
    },
    {
        "rate": 0.9370645449247033,
        "trial_type": "html-keyboard-response",
        "trial_index": 29,
        "time_elapsed": 179161,
        "internal_node_id": "0.0-19.2-1.2"
    },
    {
        "rt": null,
        "stimulus": "<div style=\"background-color:#6dce98\"><h1 style=\"background-color:MediumSeaGreen\" >You won a prize! Well done!</h1><div style=\"background-color:#6dce98\"><h1 style=\"background-color:MediumSeaGreen\" >Only 17 left to go!</h1><img id=\"box\" src=\"img/prizes/flowers.png\"></img><img id=\"box\" src=\"img/empty/redopenbox.png\"></img></div>",
        "key_press": null,
        "trial_type": "html-keyboard-response",
        "trial_index": 29,
        "time_elapsed": 180662,
        "internal_node_id": "0.0-19.2-1.2"
    },
    {
        "rt": 382.149999961257,
        "stimulus": "<p>Choose a box,</p>",
        "button_pressed": 0,
        "trial_type": "html-button-response",
        "trial_index": 30,
        "time_elapsed": 181045,
        "internal_node_id": "0.0-19.3-0.3"
    },
    {
        "rate": 0.7882459354943326,
        "trial_type": "html-keyboard-response",
        "trial_index": 31,
        "time_elapsed": 181045,
        "internal_node_id": "0.0-19.3-1.3"
    },
    {
        "rt": null,
        "stimulus": "<div style=\"background-color:#6dce98\"><h1 style=\"background-color:MediumSeaGreen\" >You won a prize! Well done!</h1><div style=\"background-color:#6dce98\"><h1 style=\"background-color:MediumSeaGreen\" >Only 16 left to go!</h1><img id=\"box\" src=\"img/prizes/duck.png\"></img><img id=\"box\" src=\"img/empty/blueopenbox.png\"></img></div>",
        "key_press": null,
        "trial_type": "html-keyboard-response",
        "trial_index": 31,
        "time_elapsed": 182547,
        "internal_node_id": "0.0-19.3-1.3"
    },
    {
        "rt": 379.92999993730336,
        "stimulus": "<p>Choose a box,</p>",
        "button_pressed": 1,
        "trial_type": "html-button-response",
        "trial_index": 32,
        "time_elapsed": 182928,
        "internal_node_id": "0.0-19.4-0.4"
    },
    {
        "rate": 0.6697337753934552,
        "trial_type": "html-keyboard-response",
        "trial_index": 33,
        "time_elapsed": 182929,
        "internal_node_id": "0.0-19.4-1.4"
    },
    {
        "rt": null,
        "stimulus": "<div style=\"background-color:#6dce98\"><h1 style=\"background-color:MediumSeaGreen\" >You won a prize! Well done!</h1><div style=\"background-color:#6dce98\"><h1 style=\"background-color:MediumSeaGreen\" >Only 15 left to go!</h1><img id=\"box\" src=\"img/prizes/lolipop.png\"></img><img id=\"box\" src=\"img/empty/greenopenbox.png\"></img></div>",
        "key_press": null,
        "trial_type": "html-keyboard-response",
        "trial_index": 33,
        "time_elapsed": 184430,
        "internal_node_id": "0.0-19.4-1.4"
    },
    {
        "rt": 531.1200000578538,
        "stimulus": "<p>Choose a box,</p>",
        "button_pressed": 2,
        "trial_type": "html-button-response",
        "trial_index": 34,
        "time_elapsed": 184963,
        "internal_node_id": "0.0-19.5-0.5"
    },
    {
        "rate": 0.5602098404282831,
        "trial_type": "html-keyboard-response",
        "trial_index": 35,
        "time_elapsed": 184963,
        "internal_node_id": "0.0-19.5-1.5"
    },
    {
        "rt": null,
        "stimulus": "<div style=\"background-color:#6dce98\"><h1 style=\"background-color:MediumSeaGreen\" >You won a prize! Well done!</h1><div style=\"background-color:#6dce98\"><h1 style=\"background-color:MediumSeaGreen\" >Only 14 left to go!</h1><img id=\"box\" src=\"img/prizes/beachball.png\"></img><img id=\"box\" src=\"img/empty/purpleopenbox.png\"></img></div>",
        "key_press": null,
        "trial_type": "html-keyboard-response",
        "trial_index": 35,
        "time_elapsed": 186472,
        "internal_node_id": "0.0-19.5-1.5"
    },
    {
        "rt": 524.1549999918789,
        "stimulus": "<p>Choose a box,</p>",
        "button_pressed": 3,
        "trial_type": "html-button-response",
        "trial_index": 36,
        "time_elapsed": 186998,
        "internal_node_id": "0.0-19.6-0.6"
    },
    {
        "rate": 0.9370645449247033,
        "trial_type": "html-keyboard-response",
        "trial_index": 37,
        "time_elapsed": 186998,
        "internal_node_id": "0.0-19.6-1.6"
    },
    {
        "rt": null,
        "stimulus": "<div style=\"background-color:#6dce98\"><h1 style=\"background-color:MediumSeaGreen\" >You won a prize! Well done!</h1><div style=\"background-color:#6dce98\"><h1 style=\"background-color:MediumSeaGreen\" >Only 13 left to go!</h1><img id=\"box\" src=\"img/prizes/beachball.png\"></img><img id=\"box\" src=\"img/empty/redopenbox.png\"></img></div>",
        "key_press": null,
        "trial_type": "html-keyboard-response",
        "trial_index": 37,
        "time_elapsed": 188500,
        "internal_node_id": "0.0-19.6-1.6"
    },
    {
        "rt": 527.4900000076741,
        "stimulus": "<p>Choose a box,</p>",
        "button_pressed": 0,
        "trial_type": "html-button-response",
        "trial_index": 38,
        "time_elapsed": 189029,
        "internal_node_id": "0.0-19.7-0.7"
    },
    {
        "rate": 0.7882459354943326,
        "trial_type": "html-keyboard-response",
        "trial_index": 39,
        "time_elapsed": 189029,
        "internal_node_id": "0.0-19.7-1.7"
    },
    {
        "rt": null,
        "stimulus": "<div style=\"background-color:#6dce98\"><h1 style=\"background-color:MediumSeaGreen\" >You won a prize! Well done!</h1><div style=\"background-color:#6dce98\"><h1 style=\"background-color:MediumSeaGreen\" >Only 12 left to go!</h1><img id=\"box\" src=\"img/prizes/beachball.png\"></img><img id=\"box\" src=\"img/empty/blueopenbox.png\"></img></div>",
        "key_press": null,
        "trial_type": "html-keyboard-response",
        "trial_index": 39,
        "time_elapsed": 190530,
        "internal_node_id": "0.0-19.7-1.7"
    },
    {
        "rt": 325.23499999661,
        "stimulus": "<p>Choose a box,</p>",
        "button_pressed": 1,
        "trial_type": "html-button-response",
        "trial_index": 40,
        "time_elapsed": 190857,
        "internal_node_id": "0.0-19.8-0.8"
    },
    {
        "rate": 0.6697337753934552,
        "trial_type": "html-keyboard-response",
        "trial_index": 41,
        "time_elapsed": 190858,
        "internal_node_id": "0.0-19.8-1.8"
    },
    {
        "rt": null,
        "stimulus": "<div style=\"background-color:#6dce98\"><h1 style=\"background-color:MediumSeaGreen\" >You won a prize! Well done!</h1><div style=\"background-color:#6dce98\"><h1 style=\"background-color:MediumSeaGreen\" >Only 11 left to go!</h1><img id=\"box\" src=\"img/prizes/beachball.png\"></img><img id=\"box\" src=\"img/empty/greenopenbox.png\"></img></div>",
        "key_press": null,
        "trial_type": "html-keyboard-response",
        "trial_index": 41,
        "time_elapsed": 192367,
        "internal_node_id": "0.0-19.8-1.8"
    },
    {
        "rt": 323.62499996088445,
        "stimulus": "<p>Choose a box,</p>",
        "button_pressed": 2,
        "trial_type": "html-button-response",
        "trial_index": 42,
        "time_elapsed": 192693,
        "internal_node_id": "0.0-19.9-0.9"
    },
    {
        "rate": 0.5602098404282831,
        "trial_type": "html-keyboard-response",
        "trial_index": 43,
        "time_elapsed": 192693,
        "internal_node_id": "0.0-19.9-1.9"
    },
    {
        "rt": null,
        "stimulus": "<div style=\"background-color:#ff7157\"><h1 style=\"background-color:Tomato\">Bad luck! There was no prize in the box!</h1><h1 style=\"background-color:Tomato\">Remember, you need to keep going until you have 20 prizes!</h1><img id=\"box\" src=\"img/sad/purpleopenboxsadthumb.png\"></img></div>",
        "key_press": null,
        "trial_type": "html-keyboard-response",
        "trial_index": 43,
        "time_elapsed": 194196,
        "internal_node_id": "0.0-19.9-1.9"
    },
    {
        "rt": 560.6949999928474,
        "stimulus": "<p>Choose a box,</p>",
        "button_pressed": 3,
        "trial_type": "html-button-response",
        "trial_index": 44,
        "time_elapsed": 194759,
        "internal_node_id": "0.0-19.10-0.10"
    },
    {
        "rate": 0.9370645449247033,
        "trial_type": "html-keyboard-response",
        "trial_index": 45,
        "time_elapsed": 194759,
        "internal_node_id": "0.0-19.10-1.10"
    },
    {
        "rt": null,
        "stimulus": "<div style=\"background-color:#6dce98\"><h1 style=\"background-color:MediumSeaGreen\" >You won a prize! Well done!</h1><div style=\"background-color:#6dce98\"><h1 style=\"background-color:MediumSeaGreen\" >Only 10 left to go!</h1><img id=\"box\" src=\"img/prizes/flowers.png\"></img><img id=\"box\" src=\"img/empty/redopenbox.png\"></img></div>",
        "key_press": null,
        "trial_type": "html-keyboard-response",
        "trial_index": 45,
        "time_elapsed": 196261,
        "internal_node_id": "0.0-19.10-1.10"
    },
    {
        "rt": 372.4850000580773,
        "stimulus": "<p>Choose a box,</p>",
        "button_pressed": 0,
        "trial_type": "html-button-response",
        "trial_index": 46,
        "time_elapsed": 196635,
        "internal_node_id": "0.0-19.11-0.11"
    },
    {
        "rate": 0.7882459354943326,
        "trial_type": "html-keyboard-response",
        "trial_index": 47,
        "time_elapsed": 196635,
        "internal_node_id": "0.0-19.11-1.11"
    },
    {
        "rt": null,
        "stimulus": "<div style=\"background-color:#6dce98\"><h1 style=\"background-color:MediumSeaGreen\" >You won a prize! Well done!</h1><div style=\"background-color:#6dce98\"><h1 style=\"background-color:MediumSeaGreen\" >Only 9 left to go!</h1><img id=\"box\" src=\"img/prizes/bear.png\"></img><img id=\"box\" src=\"img/empty/blueopenbox.png\"></img></div>",
        "key_press": null,
        "trial_type": "html-keyboard-response",
        "trial_index": 47,
        "time_elapsed": 198137,
        "internal_node_id": "0.0-19.11-1.11"
    },
    {
        "rt": 356.92499997094274,
        "stimulus": "<p>Choose a box,</p>",
        "button_pressed": 1,
        "trial_type": "html-button-response",
        "trial_index": 48,
        "time_elapsed": 198496,
        "internal_node_id": "0.0-19.12-0.12"
    },
    {
        "rate": 0.6697337753934552,
        "trial_type": "html-keyboard-response",
        "trial_index": 49,
        "time_elapsed": 198496,
        "internal_node_id": "0.0-19.12-1.12"
    },
    {
        "rt": null,
        "stimulus": "<div style=\"background-color:#6dce98\"><h1 style=\"background-color:MediumSeaGreen\" >You won a prize! Well done!</h1><div style=\"background-color:#6dce98\"><h1 style=\"background-color:MediumSeaGreen\" >Only 8 left to go!</h1><img id=\"box\" src=\"img/prizes/flowers.png\"></img><img id=\"box\" src=\"img/empty/greenopenbox.png\"></img></div>",
        "key_press": null,
        "trial_type": "html-keyboard-response",
        "trial_index": 49,
        "time_elapsed": 199998,
        "internal_node_id": "0.0-19.12-1.12"
    },
    {
        "rt": 365.6050000572577,
        "stimulus": "<p>Choose a box,</p>",
        "button_pressed": 2,
        "trial_type": "html-button-response",
        "trial_index": 50,
        "time_elapsed": 200365,
        "internal_node_id": "0.0-19.13-0.13"
    },
    {
        "rate": 0.5602098404282831,
        "trial_type": "html-keyboard-response",
        "trial_index": 51,
        "time_elapsed": 200365,
        "internal_node_id": "0.0-19.13-1.13"
    },
    {
        "rt": null,
        "stimulus": "<div style=\"background-color:#6dce98\"><h1 style=\"background-color:MediumSeaGreen\" >You won a prize! Well done!</h1><div style=\"background-color:#6dce98\"><h1 style=\"background-color:MediumSeaGreen\" >Only 7 left to go!</h1><img id=\"box\" src=\"img/prizes/ring.png\"></img><img id=\"box\" src=\"img/empty/purpleopenbox.png\"></img></div>",
        "key_press": null,
        "trial_type": "html-keyboard-response",
        "trial_index": 51,
        "time_elapsed": 201867,
        "internal_node_id": "0.0-19.13-1.13"
    },
    {
        "rt": 355.64500000327826,
        "stimulus": "<p>Choose a box,</p>",
        "button_pressed": 3,
        "trial_type": "html-button-response",
        "trial_index": 52,
        "time_elapsed": 202225,
        "internal_node_id": "0.0-19.14-0.14"
    },
    {
        "rate": 0.9370645449247033,
        "trial_type": "html-keyboard-response",
        "trial_index": 53,
        "time_elapsed": 202225,
        "internal_node_id": "0.0-19.14-1.14"
    },
    {
        "rt": null,
        "stimulus": "<div style=\"background-color:#6dce98\"><h1 style=\"background-color:MediumSeaGreen\" >You won a prize! Well done!</h1><div style=\"background-color:#6dce98\"><h1 style=\"background-color:MediumSeaGreen\" >Only 6 left to go!</h1><img id=\"box\" src=\"img/prizes/bear.png\"></img><img id=\"box\" src=\"img/empty/redopenbox.png\"></img></div>",
        "key_press": null,
        "trial_type": "html-keyboard-response",
        "trial_index": 53,
        "time_elapsed": 203727,
        "internal_node_id": "0.0-19.14-1.14"
    },
    {
        "rt": 349.6799999848008,
        "stimulus": "<p>Choose a box,</p>",
        "button_pressed": 0,
        "trial_type": "html-button-response",
        "trial_index": 54,
        "time_elapsed": 204078,
        "internal_node_id": "0.0-19.15-0.15"
    },
    {
        "rate": 0.7882459354943326,
        "trial_type": "html-keyboard-response",
        "trial_index": 55,
        "time_elapsed": 204078,
        "internal_node_id": "0.0-19.15-1.15"
    },
    {
        "rt": null,
        "stimulus": "<div style=\"background-color:#6dce98\"><h1 style=\"background-color:MediumSeaGreen\" >You won a prize! Well done!</h1><div style=\"background-color:#6dce98\"><h1 style=\"background-color:MediumSeaGreen\" >Only 5 left to go!</h1><img id=\"box\" src=\"img/prizes/duck.png\"></img><img id=\"box\" src=\"img/empty/blueopenbox.png\"></img></div>",
        "key_press": null,
        "trial_type": "html-keyboard-response",
        "trial_index": 55,
        "time_elapsed": 205587,
        "internal_node_id": "0.0-19.15-1.15"
    },
    {
        "rt": 335.7399998931214,
        "stimulus": "<p>Choose a box,</p>",
        "button_pressed": 1,
        "trial_type": "html-button-response",
        "trial_index": 56,
        "time_elapsed": 205924,
        "internal_node_id": "0.0-19.16-0.16"
    },
    {
        "rate": 0.6697337753934552,
        "trial_type": "html-keyboard-response",
        "trial_index": 57,
        "time_elapsed": 205925,
        "internal_node_id": "0.0-19.16-1.16"
    },
    {
        "rt": null,
        "stimulus": "<div style=\"background-color:#6dce98\"><h1 style=\"background-color:MediumSeaGreen\" >You won a prize! Well done!</h1><div style=\"background-color:#6dce98\"><h1 style=\"background-color:MediumSeaGreen\" >Only 4 left to go!</h1><img id=\"box\" src=\"img/prizes/yoyo.png\"></img><img id=\"box\" src=\"img/empty/greenopenbox.png\"></img></div>",
        "key_press": null,
        "trial_type": "html-keyboard-response",
        "trial_index": 57,
        "time_elapsed": 207426,
        "internal_node_id": "0.0-19.16-1.16"
    },
    {
        "rt": 355.3149999352172,
        "stimulus": "<p>Choose a box,</p>",
        "button_pressed": 2,
        "trial_type": "html-button-response",
        "trial_index": 58,
        "time_elapsed": 207784,
        "internal_node_id": "0.0-19.17-0.17"
    },
    {
        "rate": 0.5602098404282831,
        "trial_type": "html-keyboard-response",
        "trial_index": 59,
        "time_elapsed": 207784,
        "internal_node_id": "0.0-19.17-1.17"
    },
    {
        "rt": null,
        "stimulus": "<div style=\"background-color:#6dce98\"><h1 style=\"background-color:MediumSeaGreen\" >You won a prize! Well done!</h1><div style=\"background-color:#6dce98\"><h1 style=\"background-color:MediumSeaGreen\" >Only 3 left to go!</h1><img id=\"box\" src=\"img/prizes/bear.png\"></img><img id=\"box\" src=\"img/empty/purpleopenbox.png\"></img></div>",
        "key_press": null,
        "trial_type": "html-keyboard-response",
        "trial_index": 59,
        "time_elapsed": 209285,
        "internal_node_id": "0.0-19.17-1.17"
    },
    {
        "rt": 352.8150001075119,
        "stimulus": "<p>Choose a box,</p>",
        "button_pressed": 3,
        "trial_type": "html-button-response",
        "trial_index": 60,
        "time_elapsed": 209640,
        "internal_node_id": "0.0-19.18-0.18"
    },
    {
        "rate": 0.9370645449247033,
        "trial_type": "html-keyboard-response",
        "trial_index": 61,
        "time_elapsed": 209640,
        "internal_node_id": "0.0-19.18-1.18"
    },
    {
        "rt": null,
        "stimulus": "<div style=\"background-color:#6dce98\"><h1 style=\"background-color:MediumSeaGreen\" >You won a prize! Well done!</h1><div style=\"background-color:#6dce98\"><h1 style=\"background-color:MediumSeaGreen\" >Only 2 left to go!</h1><img id=\"box\" src=\"img/prizes/flowers.png\"></img><img id=\"box\" src=\"img/empty/redopenbox.png\"></img></div>",
        "key_press": null,
        "trial_type": "html-keyboard-response",
        "trial_index": 61,
        "time_elapsed": 211156,
        "internal_node_id": "0.0-19.18-1.18"
    },
    {
        "rt": 307.7700000721961,
        "stimulus": "<p>Choose a box,</p>",
        "button_pressed": 0,
        "trial_type": "html-button-response",
        "trial_index": 62,
        "time_elapsed": 211466,
        "internal_node_id": "0.0-19.19-0.19"
    },
    {
        "rate": 0.7882459354943326,
        "trial_type": "html-keyboard-response",
        "trial_index": 63,
        "time_elapsed": 211466,
        "internal_node_id": "0.0-19.19-1.19"
    },
    {
        "rt": null,
        "stimulus": "<div style=\"background-color:#6dce98\"><h1 style=\"background-color:MediumSeaGreen\" >You won a prize! Well done!</h1><div style=\"background-color:#6dce98\"><h1 style=\"background-color:MediumSeaGreen\" >Only 1 left to go!</h1><img id=\"box\" src=\"img/prizes/yoyo.png\"></img><img id=\"box\" src=\"img/empty/blueopenbox.png\"></img></div>",
        "key_press": null,
        "trial_type": "html-keyboard-response",
        "trial_index": 63,
        "time_elapsed": 212974,
        "internal_node_id": "0.0-19.19-1.19"
    },
    {
        "rt": 403.8299999665469,
        "stimulus": "<p>Choose a box,</p>",
        "button_pressed": 1,
        "trial_type": "html-button-response",
        "trial_index": 64,
        "time_elapsed": 213379,
        "internal_node_id": "0.0-19.20-0.20"
    },
    {
        "rate": 0.6697337753934552,
        "trial_type": "html-keyboard-response",
        "trial_index": 65,
        "time_elapsed": 213379,
        "internal_node_id": "0.0-19.20-1.20"
    },
    {
        "rt": null,
        "stimulus": "<div style=\"background-color:#6dce98\"><h1 style=\"background-color:MediumSeaGreen\" >You won a prize! Well done!</h1><div style=\"background-color:#6dce98\"><h1 style=\"background-color:MediumSeaGreen\" >Only 0 left to go!</h1><img id=\"box\" src=\"img/prizes/ring.png\"></img><img id=\"box\" src=\"img/empty/greenopenbox.png\"></img></div>",
        "key_press": null,
        "trial_type": "html-keyboard-response",
        "trial_index": 65,
        "time_elapsed": 214881,
        "internal_node_id": "0.0-19.20-1.20"
    },
    {
        "rt": 2385.3549999184906,
        "responses": "{\"Q0\":\"\",\"Q1\":\"\"}",
        "trial_type": "survey-text",
        "trial_index": 66,
        "time_elapsed": 217281,
        "internal_node_id": "0.0-20.0"
    }
]