[{"view_history":"[{\"page_index\":0,\"viewing_time\":95523},{\"page_index\":1,\"viewing_time\":3531},{\"page_index\":2,\"viewing_time\":10580},{\"page_index\":3,\"viewing_time\":7067},{\"page_index\":4,\"viewing_time\":4727},{\"page_index\":5,\"viewing_time\":5161}]","rt":126591,"trial_type":"instructions","trial_index":0,"time_elapsed":126597,"internal_node_id":"0.0-0.0"},{"rt":9596,"responses":"{\"Q0\":\"Yes\",\"Q1\":\"Yes\",\"Q2\":\"Yes\"}","question_order":"[0,1,2]","trial_type":"survey-multi-choice","trial_index":1,"time_elapsed":136201,"internal_node_id":"0.0-1.0-0.0"},{"rt":12030,"responses":"{\"Q0\":\"Yes\",\"Q1\":\"Yes\",\"Q2\":\"Yes\"}","question_order":"[0,1,2]","trial_type":"survey-multi-choice","trial_index":2,"time_elapsed":148237,"internal_node_id":"0.0-2.0-0.0"},{"rt":6674,"responses":"{\"Q0\":\"5f9b61fffd920a388545bf63\"}","trial_type":"survey-text","trial_index":3,"time_elapsed":154923,"internal_node_id":"0.0-3.0"},{"rt":6506,"responses":"{\"Q0\":\"Female\",\"Q1\":\"18-25\"}","question_order":"[0,1]","trial_type":"survey-multi-choice","trial_index":4,"time_elapsed":161434,"internal_node_id":"0.0-4.0"},{"rt":20500,"responses":"{\"Q0\":\"escitalopram\"}","trial_type":"survey-text","trial_index":5,"time_elapsed":181951,"internal_node_id":"0.0-5.0"},{"view_history":"[{\"page_index\":0,\"viewing_time\":4713}]","rt":4714,"trial_type":"instructions","trial_index":6,"time_elapsed":186666,"internal_node_id":"0.0-6.0"},{"rt":440024,"responses":"{\"Interested\":1,\"Distressed\":2,\"Excited\":1,\"Upset\":3}","question_order":"[0,1,2,3]","trial_type":"survey-likert","trial_index":7,"time_elapsed":626702,"internal_node_id":"0.0-7.0"},{"rt":9099,"responses":"{\"Strong\":0,\"Guilty\":3,\"Scared\":3,\"Hostile\":3}","question_order":"[0,1,2,3]","trial_type":"survey-likert","trial_index":8,"time_elapsed":635813,"internal_node_id":"0.0-8.0"},{"rt":11618,"responses":"{\"Enthusiastic\":1,\"Proud\":1,\"Irritable\":2,\"Alert\":1}","question_order":"[0,1,2,3]","trial_type":"survey-likert","trial_index":9,"time_elapsed":647440,"internal_node_id":"0.0-9.0"},{"rt":124281,"responses":"{\"Ashamed\":2,\"Inspired\":0,\"Nervous\":3,\"Determined\":0}","question_order":"[0,1,2,3]","trial_type":"survey-likert","trial_index":10,"time_elapsed":771730,"internal_node_id":"0.0-10.0"},{"rt":6460,"responses":"{\"Attentive\":1,\"Jittery\":1,\"Active\":1,\"Afraid\":3}","question_order":"[0,1,2,3]","trial_type":"survey-likert","trial_index":11,"time_elapsed":778198,"internal_node_id":"0.0-11.0"},{"rt":9342,"responses":"{\"Q0\":1,\"Q1\":1,\"Q2\":1,\"Q3\":1}","question_order":"[0,1,2,3]","trial_type":"survey-likert","trial_index":12,"time_elapsed":787547,"internal_node_id":"0.0-12.0"},{"rt":18371,"responses":"{\"Q0\":0,\"Q1\":1,\"Q2\":0,\"Q3\":3}","question_order":"[0,1,2,3]","trial_type":"survey-likert","trial_index":13,"time_elapsed":805924,"internal_node_id":"0.0-13.0"},{"rt":23093,"responses":"{\"Q0\":1,\"Q1\":1,\"Q2\":2,\"Q3\":2}","question_order":"[0,1,2,3]","trial_type":"survey-likert","trial_index":14,"time_elapsed":829024,"internal_node_id":"0.0-14.0"},{"rt":7020,"responses":"{\"Q0\":1,\"Q1\":1,\"Q2\":1}","question_order":"[0,1,2]","trial_type":"survey-likert","trial_index":15,"time_elapsed":836051,"internal_node_id":"0.0-15.0"},{"view_history":"[{\"page_index\":0,\"viewing_time\":94248},{\"page_index\":1,\"viewing_time\":6889},{\"page_index\":2,\"viewing_time\":4126}]","rt":105265,"trial_type":"instructions","trial_index":16,"time_elapsed":941326,"internal_node_id":"0.0-16.0"},{"rt":1258,"stimulus":"<p>Choose a box,</p>","button_pressed":0,"trial_type":"html-button-response","trial_index":17,"time_elapsed":942588,"internal_node_id":"0.0-17.0-0.0"},{"rate":0.48752232550091673,"trial_type":"html-keyboard-response","trial_index":18,"time_elapsed":942589,"internal_node_id":"0.0-17.0-1.0"},{"rt":null,"stimulus":"<div style=\"background-color:#ff7157\"><h1 style=\"background-color:Tomato\">Bad luck! There was no prize in the box!</h1><h1 style=\"background-color:Tomato\">Remember, you need to keep going until you have 20 prizes!</h1><img id=\"box\" src=\"img/sad/blueopenboxsadthumb.png\"></img></div>","key_press":null,"trial_type":"html-keyboard-response","trial_index":18,"time_elapsed":944099,"internal_node_id":"0.0-17.0-1.0"},{"rt":2145,"stimulus":"<p>Choose a box,</p>","button_pressed":2,"trial_type":"html-button-response","trial_index":19,"time_elapsed":946248,"internal_node_id":"0.0-17.0-0.1"},{"rate":0.27993007303618384,"trial_type":"html-keyboard-response","trial_index":20,"time_elapsed":946248,"internal_node_id":"0.0-17.0-1.1"},{"rt":null,"stimulus":"<div style=\"background-color:#ff7157\"><h1 style=\"background-color:Tomato\">Bad luck! There was no prize in the box!</h1><h1 style=\"background-color:Tomato\">Remember, you need to keep going until you have 20 prizes!</h1><img id=\"box\" src=\"img/sad/purpleopenboxsadthumb.png\"></img></div>","key_press":null,"trial_type":"html-keyboard-response","trial_index":20,"time_elapsed":947764,"internal_node_id":"0.0-17.0-1.1"},{"rt":1698,"stimulus":"<p>Choose a box,</p>","button_pressed":3,"trial_type":"html-button-response","trial_index":21,"time_elapsed":949465,"internal_node_id":"0.0-17.0-0.2"},{"rate":0.7108836192536507,"trial_type":"html-keyboard-response","trial_index":22,"time_elapsed":949465,"internal_node_id":"0.0-17.0-1.2"},{"rt":null,"stimulus":"<div style=\"background-color:#6dce98\"><h1 style=\"background-color:MediumSeaGreen\" >You won a prize! Well done!</h1><div style=\"background-color:#6dce98\"><h1 style=\"background-color:MediumSeaGreen\" >Only 19 left to go!</h1><img id=\"box\" src=\"img/prizes/coins.png\"></img><img id=\"box\" src=\"img/empty/redopenbox.png\"></img></div>","key_press":null,"trial_type":"html-keyboard-response","trial_index":22,"time_elapsed":950970,"internal_node_id":"0.0-17.0-1.2"},{"view_history":"[{\"page_index\":0,\"viewing_time\":2446}]","rt":2446,"trial_type":"instructions","trial_index":23,"time_elapsed":953419,"internal_node_id":"0.0-18.0"},{"rt":1299,"stimulus":"<p>Choose a box,</p>","button_pressed":1,"trial_type":"html-button-response","trial_index":24,"time_elapsed":954722,"internal_node_id":"0.0-19.0-0.0"},{"rate":0.41904088829403374,"trial_type":"html-keyboard-response","trial_index":25,"time_elapsed":954723,"internal_node_id":"0.0-19.0-1.0"},{"rt":null,"stimulus":"<div style=\"background-color:#6dce98\"><h1 style=\"background-color:MediumSeaGreen\" >You won a prize! Well done!</h1><div style=\"background-color:#6dce98\"><h1 style=\"background-color:MediumSeaGreen\" >Only 19 left to go!</h1><img id=\"box\" src=\"img/prizes/lolipop.png\"></img><img id=\"box\" src=\"img/empty/greenopenbox.png\"></img></div>","key_press":null,"trial_type":"html-keyboard-response","trial_index":25,"time_elapsed":956242,"internal_node_id":"0.0-19.0-1.0"},{"rt":1166,"stimulus":"<p>Choose a box,</p>","button_pressed":2,"trial_type":"html-button-response","trial_index":26,"time_elapsed":957412,"internal_node_id":"0.0-19.1-0.1"},{"rate":0.22260258561897214,"trial_type":"html-keyboard-response","trial_index":27,"time_elapsed":957412,"internal_node_id":"0.0-19.1-1.1"},{"rt":null,"stimulus":"<div style=\"background-color:#ff7157\"><h1 style=\"background-color:Tomato\">Bad luck! There was no prize in the box!</h1><h1 style=\"background-color:Tomato\">Remember, you need to keep going until you have 20 prizes!</h1><img id=\"box\" src=\"img/sad/purpleopenboxsadthumb.png\"></img></div>","key_press":null,"trial_type":"html-keyboard-response","trial_index":27,"time_elapsed":958915,"internal_node_id":"0.0-19.1-1.1"},{"rt":546,"stimulus":"<p>Choose a box,</p>","button_pressed":3,"trial_type":"html-button-response","trial_index":28,"time_elapsed":959465,"internal_node_id":"0.0-19.2-0.2"},{"rate":0.9187115470346897,"trial_type":"html-keyboard-response","trial_index":29,"time_elapsed":959465,"internal_node_id":"0.0-19.2-1.2"},{"rt":null,"stimulus":"<div style=\"background-color:#6dce98\"><h1 style=\"background-color:MediumSeaGreen\" >You won a prize! Well done!</h1><div style=\"background-color:#6dce98\"><h1 style=\"background-color:MediumSeaGreen\" >Only 18 left to go!</h1><img id=\"box\" src=\"img/prizes/flowers.png\"></img><img id=\"box\" src=\"img/empty/redopenbox.png\"></img></div>","key_press":null,"trial_type":"html-keyboard-response","trial_index":29,"time_elapsed":960980,"internal_node_id":"0.0-19.2-1.2"},{"rt":775,"stimulus":"<p>Choose a box,</p>","button_pressed":1,"trial_type":"html-button-response","trial_index":30,"time_elapsed":961760,"internal_node_id":"0.0-19.3-0.3"},{"rate":0.41904088829403374,"trial_type":"html-keyboard-response","trial_index":31,"time_elapsed":961760,"internal_node_id":"0.0-19.3-1.3"},{"rt":null,"stimulus":"<div style=\"background-color:#6dce98\"><h1 style=\"background-color:MediumSeaGreen\" >You won a prize! Well done!</h1><div style=\"background-color:#6dce98\"><h1 style=\"background-color:MediumSeaGreen\" >Only 17 left to go!</h1><img id=\"box\" src=\"img/prizes/coins.png\"></img><img id=\"box\" src=\"img/empty/greenopenbox.png\"></img></div>","key_press":null,"trial_type":"html-keyboard-response","trial_index":31,"time_elapsed":963267,"internal_node_id":"0.0-19.3-1.3"},{"rt":417,"stimulus":"<p>Choose a box,</p>","button_pressed":1,"trial_type":"html-button-response","trial_index":32,"time_elapsed":963685,"internal_node_id":"0.0-19.4-0.4"},{"rate":0.41904088829403374,"trial_type":"html-keyboard-response","trial_index":33,"time_elapsed":963685,"internal_node_id":"0.0-19.4-1.4"},{"rt":null,"stimulus":"<div style=\"background-color:#ff7157\"><h1 style=\"background-color:Tomato\">Bad luck! There was no prize in the box!</h1><h1 style=\"background-color:Tomato\">Remember, you need to keep going until you have 20 prizes!</h1><img id=\"box\" src=\"img/sad/greenopenboxsadthumb.png\"></img></div>","key_press":null,"trial_type":"html-keyboard-response","trial_index":33,"time_elapsed":965198,"internal_node_id":"0.0-19.4-1.4"},{"rt":831,"stimulus":"<p>Choose a box,</p>","button_pressed":0,"trial_type":"html-button-response","trial_index":34,"time_elapsed":966032,"internal_node_id":"0.0-19.5-0.5"},{"rate":0.646820893607008,"trial_type":"html-keyboard-response","trial_index":35,"time_elapsed":966033,"internal_node_id":"0.0-19.5-1.5"},{"rt":null,"stimulus":"<div style=\"background-color:#6dce98\"><h1 style=\"background-color:MediumSeaGreen\" >You won a prize! Well done!</h1><div style=\"background-color:#6dce98\"><h1 style=\"background-color:MediumSeaGreen\" >Only 16 left to go!</h1><img id=\"box\" src=\"img/prizes/ring.png\"></img><img id=\"box\" src=\"img/empty/blueopenbox.png\"></img></div>","key_press":null,"trial_type":"html-keyboard-response","trial_index":35,"time_elapsed":967545,"internal_node_id":"0.0-19.5-1.5"},{"rt":577,"stimulus":"<p>Choose a box,</p>","button_pressed":2,"trial_type":"html-button-response","trial_index":36,"time_elapsed":968125,"internal_node_id":"0.0-19.6-0.6"},{"rate":0.22260258561897214,"trial_type":"html-keyboard-response","trial_index":37,"time_elapsed":968125,"internal_node_id":"0.0-19.6-1.6"},{"rt":null,"stimulus":"<div style=\"background-color:#ff7157\"><h1 style=\"background-color:Tomato\">Bad luck! There was no prize in the box!</h1><h1 style=\"background-color:Tomato\">Remember, you need to keep going until you have 20 prizes!</h1><img id=\"box\" src=\"img/sad/purpleopenboxsadthumb.png\"></img></div>","key_press":null,"trial_type":"html-keyboard-response","trial_index":37,"time_elapsed":969628,"internal_node_id":"0.0-19.6-1.6"},{"rt":381,"stimulus":"<p>Choose a box,</p>","button_pressed":3,"trial_type":"html-button-response","trial_index":38,"time_elapsed":970011,"internal_node_id":"0.0-19.7-0.7"},{"rate":0.9187115470346897,"trial_type":"html-keyboard-response","trial_index":39,"time_elapsed":970011,"internal_node_id":"0.0-19.7-1.7"},{"rt":null,"stimulus":"<div style=\"background-color:#6dce98\"><h1 style=\"background-color:MediumSeaGreen\" >You won a prize! Well done!</h1><div style=\"background-color:#6dce98\"><h1 style=\"background-color:MediumSeaGreen\" >Only 15 left to go!</h1><img id=\"box\" src=\"img/prizes/choc.png\"></img><img id=\"box\" src=\"img/empty/redopenbox.png\"></img></div>","key_press":null,"trial_type":"html-keyboard-response","trial_index":39,"time_elapsed":971525,"internal_node_id":"0.0-19.7-1.7"},{"rt":548,"stimulus":"<p>Choose a box,</p>","button_pressed":3,"trial_type":"html-button-response","trial_index":40,"time_elapsed":972076,"internal_node_id":"0.0-19.8-0.8"},{"rate":0.9187115470346897,"trial_type":"html-keyboard-response","trial_index":41,"time_elapsed":972076,"internal_node_id":"0.0-19.8-1.8"},{"rt":null,"stimulus":"<div style=\"background-color:#ff7157\"><h1 style=\"background-color:Tomato\">Bad luck! There was no prize in the box!</h1><h1 style=\"background-color:Tomato\">Remember, you need to keep going until you have 20 prizes!</h1><img id=\"box\" src=\"img/sad/redopenboxsadthumb.png\"></img></div>","key_press":null,"trial_type":"html-keyboard-response","trial_index":41,"time_elapsed":973588,"internal_node_id":"0.0-19.8-1.8"},{"rt":591,"stimulus":"<p>Choose a box,</p>","button_pressed":1,"trial_type":"html-button-response","trial_index":42,"time_elapsed":974180,"internal_node_id":"0.0-19.9-0.9"},{"rate":0.41904088829403374,"trial_type":"html-keyboard-response","trial_index":43,"time_elapsed":974180,"internal_node_id":"0.0-19.9-1.9"},{"rt":null,"stimulus":"<div style=\"background-color:#ff7157\"><h1 style=\"background-color:Tomato\">Bad luck! There was no prize in the box!</h1><h1 style=\"background-color:Tomato\">Remember, you need to keep going until you have 20 prizes!</h1><img id=\"box\" src=\"img/sad/greenopenboxsadthumb.png\"></img></div>","key_press":null,"trial_type":"html-keyboard-response","trial_index":43,"time_elapsed":975686,"internal_node_id":"0.0-19.9-1.9"},{"rt":352,"stimulus":"<p>Choose a box,</p>","button_pressed":2,"trial_type":"html-button-response","trial_index":44,"time_elapsed":976042,"internal_node_id":"0.0-19.10-0.10"},{"rate":0.22260258561897214,"trial_type":"html-keyboard-response","trial_index":45,"time_elapsed":976043,"internal_node_id":"0.0-19.10-1.10"},{"rt":null,"stimulus":"<div style=\"background-color:#ff7157\"><h1 style=\"background-color:Tomato\">Bad luck! There was no prize in the box!</h1><h1 style=\"background-color:Tomato\">Remember, you need to keep going until you have 20 prizes!</h1><img id=\"box\" src=\"img/sad/purpleopenboxsadthumb.png\"></img></div>","key_press":null,"trial_type":"html-keyboard-response","trial_index":45,"time_elapsed":977554,"internal_node_id":"0.0-19.10-1.10"},{"rt":221,"stimulus":"<p>Choose a box,</p>","button_pressed":0,"trial_type":"html-button-response","trial_index":46,"time_elapsed":977776,"internal_node_id":"0.0-19.11-0.11"},{"rate":0.646820893607008,"trial_type":"html-keyboard-response","trial_index":47,"time_elapsed":977777,"internal_node_id":"0.0-19.11-1.11"},{"rt":null,"stimulus":"<div style=\"background-color:#ff7157\"><h1 style=\"background-color:Tomato\">Bad luck! There was no prize in the box!</h1><h1 style=\"background-color:Tomato\">Remember, you need to keep going until you have 20 prizes!</h1><img id=\"box\" src=\"img/sad/blueopenboxsadthumb.png\"></img></div>","key_press":null,"trial_type":"html-keyboard-response","trial_index":47,"time_elapsed":979295,"internal_node_id":"0.0-19.11-1.11"},{"rt":595,"stimulus":"<p>Choose a box,</p>","button_pressed":0,"trial_type":"html-button-response","trial_index":48,"time_elapsed":979893,"internal_node_id":"0.0-19.12-0.12"},{"rate":0.646820893607008,"trial_type":"html-keyboard-response","trial_index":49,"time_elapsed":979893,"internal_node_id":"0.0-19.12-1.12"},{"rt":null,"stimulus":"<div style=\"background-color:#6dce98\"><h1 style=\"background-color:MediumSeaGreen\" >You won a prize! Well done!</h1><div style=\"background-color:#6dce98\"><h1 style=\"background-color:MediumSeaGreen\" >Only 14 left to go!</h1><img id=\"box\" src=\"img/prizes/yoyo.png\"></img><img id=\"box\" src=\"img/empty/blueopenbox.png\"></img></div>","key_press":null,"trial_type":"html-keyboard-response","trial_index":49,"time_elapsed":981398,"internal_node_id":"0.0-19.12-1.12"},{"rt":547,"stimulus":"<p>Choose a box,</p>","button_pressed":1,"trial_type":"html-button-response","trial_index":50,"time_elapsed":981948,"internal_node_id":"0.0-19.13-0.13"},{"rate":0.41904088829403374,"trial_type":"html-keyboard-response","trial_index":51,"time_elapsed":981948,"internal_node_id":"0.0-19.13-1.13"},{"rt":null,"stimulus":"<div style=\"background-color:#6dce98\"><h1 style=\"background-color:MediumSeaGreen\" >You won a prize! Well done!</h1><div style=\"background-color:#6dce98\"><h1 style=\"background-color:MediumSeaGreen\" >Only 13 left to go!</h1><img id=\"box\" src=\"img/prizes/yoyo.png\"></img><img id=\"box\" src=\"img/empty/greenopenbox.png\"></img></div>","key_press":null,"trial_type":"html-keyboard-response","trial_index":51,"time_elapsed":983462,"internal_node_id":"0.0-19.13-1.13"},{"rt":675,"stimulus":"<p>Choose a box,</p>","button_pressed":2,"trial_type":"html-button-response","trial_index":52,"time_elapsed":984141,"internal_node_id":"0.0-19.14-0.14"},{"rate":0.22260258561897214,"trial_type":"html-keyboard-response","trial_index":53,"time_elapsed":984141,"internal_node_id":"0.0-19.14-1.14"},{"rt":null,"stimulus":"<div style=\"background-color:#6dce98\"><h1 style=\"background-color:MediumSeaGreen\" >You won a prize! Well done!</h1><div style=\"background-color:#6dce98\"><h1 style=\"background-color:MediumSeaGreen\" >Only 12 left to go!</h1><img id=\"box\" src=\"img/prizes/choc.png\"></img><img id=\"box\" src=\"img/empty/purpleopenbox.png\"></img></div>","key_press":null,"trial_type":"html-keyboard-response","trial_index":53,"time_elapsed":985650,"internal_node_id":"0.0-19.14-1.14"},{"rt":681,"stimulus":"<p>Choose a box,</p>","button_pressed":3,"trial_type":"html-button-response","trial_index":54,"time_elapsed":986333,"internal_node_id":"0.0-19.15-0.15"},{"rate":0.9187115470346897,"trial_type":"html-keyboard-response","trial_index":55,"time_elapsed":986334,"internal_node_id":"0.0-19.15-1.15"},{"rt":null,"stimulus":"<div style=\"background-color:#6dce98\"><h1 style=\"background-color:MediumSeaGreen\" >You won a prize! Well done!</h1><div style=\"background-color:#6dce98\"><h1 style=\"background-color:MediumSeaGreen\" >Only 11 left to go!</h1><img id=\"box\" src=\"img/prizes/beachball.png\"></img><img id=\"box\" src=\"img/empty/redopenbox.png\"></img></div>","key_press":null,"trial_type":"html-keyboard-response","trial_index":55,"time_elapsed":987846,"internal_node_id":"0.0-19.15-1.15"},{"rt":628,"stimulus":"<p>Choose a box,</p>","button_pressed":2,"trial_type":"html-button-response","trial_index":56,"time_elapsed":988475,"internal_node_id":"0.0-19.16-0.16"},{"rate":0.22260258561897214,"trial_type":"html-keyboard-response","trial_index":57,"time_elapsed":988476,"internal_node_id":"0.0-19.16-1.16"},{"rt":null,"stimulus":"<div style=\"background-color:#ff7157\"><h1 style=\"background-color:Tomato\">Bad luck! There was no prize in the box!</h1><h1 style=\"background-color:Tomato\">Remember, you need to keep going until you have 20 prizes!</h1><img id=\"box\" src=\"img/sad/purpleopenboxsadthumb.png\"></img></div>","key_press":null,"trial_type":"html-keyboard-response","trial_index":57,"time_elapsed":989984,"internal_node_id":"0.0-19.16-1.16"},{"rt":519,"stimulus":"<p>Choose a box,</p>","button_pressed":1,"trial_type":"html-button-response","trial_index":58,"time_elapsed":990504,"internal_node_id":"0.0-19.17-0.17"},{"rate":0.41904088829403374,"trial_type":"html-keyboard-response","trial_index":59,"time_elapsed":990504,"internal_node_id":"0.0-19.17-1.17"},{"rt":null,"stimulus":"<div style=\"background-color:#ff7157\"><h1 style=\"background-color:Tomato\">Bad luck! There was no prize in the box!</h1><h1 style=\"background-color:Tomato\">Remember, you need to keep going until you have 20 prizes!</h1><img id=\"box\" src=\"img/sad/greenopenboxsadthumb.png\"></img></div>","key_press":null,"trial_type":"html-keyboard-response","trial_index":59,"time_elapsed":992016,"internal_node_id":"0.0-19.17-1.17"},{"rt":740,"stimulus":"<p>Choose a box,</p>","button_pressed":0,"trial_type":"html-button-response","trial_index":60,"time_elapsed":992761,"internal_node_id":"0.0-19.18-0.18"},{"rate":0.646820893607008,"trial_type":"html-keyboard-response","trial_index":61,"time_elapsed":992761,"internal_node_id":"0.0-19.18-1.18"},{"rt":null,"stimulus":"<div style=\"background-color:#6dce98\"><h1 style=\"background-color:MediumSeaGreen\" >You won a prize! Well done!</h1><div style=\"background-color:#6dce98\"><h1 style=\"background-color:MediumSeaGreen\" >Only 10 left to go!</h1><img id=\"box\" src=\"img/prizes/bear.png\"></img><img id=\"box\" src=\"img/empty/blueopenbox.png\"></img></div>","key_press":null,"trial_type":"html-keyboard-response","trial_index":61,"time_elapsed":994267,"internal_node_id":"0.0-19.18-1.18"},{"rt":595,"stimulus":"<p>Choose a box,</p>","button_pressed":0,"trial_type":"html-button-response","trial_index":62,"time_elapsed":994865,"internal_node_id":"0.0-19.19-0.19"},{"rate":0.646820893607008,"trial_type":"html-keyboard-response","trial_index":63,"time_elapsed":994866,"internal_node_id":"0.0-19.19-1.19"},{"rt":null,"stimulus":"<div style=\"background-color:#ff7157\"><h1 style=\"background-color:Tomato\">Bad luck! There was no prize in the box!</h1><h1 style=\"background-color:Tomato\">Remember, you need to keep going until you have 20 prizes!</h1><img id=\"box\" src=\"img/sad/blueopenboxsadthumb.png\"></img></div>","key_press":null,"trial_type":"html-keyboard-response","trial_index":63,"time_elapsed":996380,"internal_node_id":"0.0-19.19-1.19"},{"rt":293,"stimulus":"<p>Choose a box,</p>","button_pressed":3,"trial_type":"html-button-response","trial_index":64,"time_elapsed":996675,"internal_node_id":"0.0-19.20-0.20"},{"rate":0.9187115470346897,"trial_type":"html-keyboard-response","trial_index":65,"time_elapsed":996675,"internal_node_id":"0.0-19.20-1.20"},{"rt":null,"stimulus":"<div style=\"background-color:#6dce98\"><h1 style=\"background-color:MediumSeaGreen\" >You won a prize! Well done!</h1><div style=\"background-color:#6dce98\"><h1 style=\"background-color:MediumSeaGreen\" >Only 9 left to go!</h1><img id=\"box\" src=\"img/prizes/ring.png\"></img><img id=\"box\" src=\"img/empty/redopenbox.png\"></img></div>","key_press":null,"trial_type":"html-keyboard-response","trial_index":65,"time_elapsed":998183,"internal_node_id":"0.0-19.20-1.20"},{"rt":530,"stimulus":"<p>Choose a box,</p>","button_pressed":2,"trial_type":"html-button-response","trial_index":66,"time_elapsed":998715,"internal_node_id":"0.0-19.21-0.21"},{"rate":0.22260258561897214,"trial_type":"html-keyboard-response","trial_index":67,"time_elapsed":998716,"internal_node_id":"0.0-19.21-1.21"},{"rt":null,"stimulus":"<div style=\"background-color:#ff7157\"><h1 style=\"background-color:Tomato\">Bad luck! There was no prize in the box!</h1><h1 style=\"background-color:Tomato\">Remember, you need to keep going until you have 20 prizes!</h1><img id=\"box\" src=\"img/sad/purpleopenboxsadthumb.png\"></img></div>","key_press":null,"trial_type":"html-keyboard-response","trial_index":67,"time_elapsed":1000232,"internal_node_id":"0.0-19.21-1.21"},{"rt":546,"stimulus":"<p>Choose a box,</p>","button_pressed":1,"trial_type":"html-button-response","trial_index":68,"time_elapsed":1000781,"internal_node_id":"0.0-19.22-0.22"},{"rate":0.41904088829403374,"trial_type":"html-keyboard-response","trial_index":69,"time_elapsed":1000782,"internal_node_id":"0.0-19.22-1.22"},{"rt":null,"stimulus":"<div style=\"background-color:#ff7157\"><h1 style=\"background-color:Tomato\">Bad luck! There was no prize in the box!</h1><h1 style=\"background-color:Tomato\">Remember, you need to keep going until you have 20 prizes!</h1><img id=\"box\" src=\"img/sad/greenopenboxsadthumb.png\"></img></div>","key_press":null,"trial_type":"html-keyboard-response","trial_index":69,"time_elapsed":1002292,"internal_node_id":"0.0-19.22-1.22"},{"rt":375,"stimulus":"<p>Choose a box,</p>","button_pressed":0,"trial_type":"html-button-response","trial_index":70,"time_elapsed":1002668,"internal_node_id":"0.0-19.23-0.23"},{"rate":0.646820893607008,"trial_type":"html-keyboard-response","trial_index":71,"time_elapsed":1002668,"internal_node_id":"0.0-19.23-1.23"},{"rt":null,"stimulus":"<div style=\"background-color:#6dce98\"><h1 style=\"background-color:MediumSeaGreen\" >You won a prize! Well done!</h1><div style=\"background-color:#6dce98\"><h1 style=\"background-color:MediumSeaGreen\" >Only 8 left to go!</h1><img id=\"box\" src=\"img/prizes/ring.png\"></img><img id=\"box\" src=\"img/empty/blueopenbox.png\"></img></div>","key_press":null,"trial_type":"html-keyboard-response","trial_index":71,"time_elapsed":1004185,"internal_node_id":"0.0-19.23-1.23"},{"rt":496,"stimulus":"<p>Choose a box,</p>","button_pressed":0,"trial_type":"html-button-response","trial_index":72,"time_elapsed":1004684,"internal_node_id":"0.0-19.24-0.24"},{"rate":0.646820893607008,"trial_type":"html-keyboard-response","trial_index":73,"time_elapsed":1004684,"internal_node_id":"0.0-19.24-1.24"},{"rt":null,"stimulus":"<div style=\"background-color:#ff7157\"><h1 style=\"background-color:Tomato\">Bad luck! There was no prize in the box!</h1><h1 style=\"background-color:Tomato\">Remember, you need to keep going until you have 20 prizes!</h1><img id=\"box\" src=\"img/sad/blueopenboxsadthumb.png\"></img></div>","key_press":null,"trial_type":"html-keyboard-response","trial_index":73,"time_elapsed":1006196,"internal_node_id":"0.0-19.24-1.24"},{"rt":551,"stimulus":"<p>Choose a box,</p>","button_pressed":3,"trial_type":"html-button-response","trial_index":74,"time_elapsed":1006749,"internal_node_id":"0.0-19.25-0.25"},{"rate":0.9187115470346897,"trial_type":"html-keyboard-response","trial_index":75,"time_elapsed":1006750,"internal_node_id":"0.0-19.25-1.25"},{"rt":null,"stimulus":"<div style=\"background-color:#6dce98\"><h1 style=\"background-color:MediumSeaGreen\" >You won a prize! Well done!</h1><div style=\"background-color:#6dce98\"><h1 style=\"background-color:MediumSeaGreen\" >Only 7 left to go!</h1><img id=\"box\" src=\"img/prizes/choc.png\"></img><img id=\"box\" src=\"img/empty/redopenbox.png\"></img></div>","key_press":null,"trial_type":"html-keyboard-response","trial_index":75,"time_elapsed":1008263,"internal_node_id":"0.0-19.25-1.25"},{"rt":268,"stimulus":"<p>Choose a box,</p>","button_pressed":2,"trial_type":"html-button-response","trial_index":76,"time_elapsed":1008534,"internal_node_id":"0.0-19.26-0.26"},{"rate":0.22260258561897214,"trial_type":"html-keyboard-response","trial_index":77,"time_elapsed":1008536,"internal_node_id":"0.0-19.26-1.26"},{"rt":null,"stimulus":"<div style=\"background-color:#ff7157\"><h1 style=\"background-color:Tomato\">Bad luck! There was no prize in the box!</h1><h1 style=\"background-color:Tomato\">Remember, you need to keep going until you have 20 prizes!</h1><img id=\"box\" src=\"img/sad/purpleopenboxsadthumb.png\"></img></div>","key_press":null,"trial_type":"html-keyboard-response","trial_index":77,"time_elapsed":1010046,"internal_node_id":"0.0-19.26-1.26"},{"rt":348,"stimulus":"<p>Choose a box,</p>","button_pressed":3,"trial_type":"html-button-response","trial_index":78,"time_elapsed":1010396,"internal_node_id":"0.0-19.27-0.27"},{"rate":0.9187115470346897,"trial_type":"html-keyboard-response","trial_index":79,"time_elapsed":1010396,"internal_node_id":"0.0-19.27-1.27"},{"rt":null,"stimulus":"<div style=\"background-color:#6dce98\"><h1 style=\"background-color:MediumSeaGreen\" >You won a prize! Well done!</h1><div style=\"background-color:#6dce98\"><h1 style=\"background-color:MediumSeaGreen\" >Only 6 left to go!</h1><img id=\"box\" src=\"img/prizes/duck.png\"></img><img id=\"box\" src=\"img/empty/redopenbox.png\"></img></div>","key_press":null,"trial_type":"html-keyboard-response","trial_index":79,"time_elapsed":1011924,"internal_node_id":"0.0-19.27-1.27"},{"rt":541,"stimulus":"<p>Choose a box,</p>","button_pressed":3,"trial_type":"html-button-response","trial_index":80,"time_elapsed":1012466,"internal_node_id":"0.0-19.28-0.28"},{"rate":0.9187115470346897,"trial_type":"html-keyboard-response","trial_index":81,"time_elapsed":1012466,"internal_node_id":"0.0-19.28-1.28"},{"rt":null,"stimulus":"<div style=\"background-color:#6dce98\"><h1 style=\"background-color:MediumSeaGreen\" >You won a prize! Well done!</h1><div style=\"background-color:#6dce98\"><h1 style=\"background-color:MediumSeaGreen\" >Only 5 left to go!</h1><img id=\"box\" src=\"img/prizes/choc.png\"></img><img id=\"box\" src=\"img/empty/redopenbox.png\"></img></div>","key_press":null,"trial_type":"html-keyboard-response","trial_index":81,"time_elapsed":1013982,"internal_node_id":"0.0-19.28-1.28"},{"rt":184,"stimulus":"<p>Choose a box,</p>","button_pressed":3,"trial_type":"html-button-response","trial_index":82,"time_elapsed":1014168,"internal_node_id":"0.0-19.29-0.29"},{"rate":0.9187115470346897,"trial_type":"html-keyboard-response","trial_index":83,"time_elapsed":1014169,"internal_node_id":"0.0-19.29-1.29"},{"rt":null,"stimulus":"<div style=\"background-color:#6dce98\"><h1 style=\"background-color:MediumSeaGreen\" >You won a prize! Well done!</h1><div style=\"background-color:#6dce98\"><h1 style=\"background-color:MediumSeaGreen\" >Only 4 left to go!</h1><img id=\"box\" src=\"img/prizes/lolipop.png\"></img><img id=\"box\" src=\"img/empty/redopenbox.png\"></img></div>","key_press":null,"trial_type":"html-keyboard-response","trial_index":83,"time_elapsed":1015674,"internal_node_id":"0.0-19.29-1.29"},{"rt":456,"stimulus":"<p>Choose a box,</p>","button_pressed":3,"trial_type":"html-button-response","trial_index":84,"time_elapsed":1016132,"internal_node_id":"0.0-19.30-0.30"},{"rate":0.9187115470346897,"trial_type":"html-keyboard-response","trial_index":85,"time_elapsed":1016132,"internal_node_id":"0.0-19.30-1.30"},{"rt":null,"stimulus":"<div style=\"background-color:#6dce98\"><h1 style=\"background-color:MediumSeaGreen\" >You won a prize! Well done!</h1><div style=\"background-color:#6dce98\"><h1 style=\"background-color:MediumSeaGreen\" >Only 3 left to go!</h1><img id=\"box\" src=\"img/prizes/yoyo.png\"></img><img id=\"box\" src=\"img/empty/redopenbox.png\"></img></div>","key_press":null,"trial_type":"html-keyboard-response","trial_index":85,"time_elapsed":1017635,"internal_node_id":"0.0-19.30-1.30"},{"rt":701,"stimulus":"<p>Choose a box,</p>","button_pressed":3,"trial_type":"html-button-response","trial_index":86,"time_elapsed":1018339,"internal_node_id":"0.0-19.31-0.31"},{"rate":0.9187115470346897,"trial_type":"html-keyboard-response","trial_index":87,"time_elapsed":1018339,"internal_node_id":"0.0-19.31-1.31"},{"rt":null,"stimulus":"<div style=\"background-color:#6dce98\"><h1 style=\"background-color:MediumSeaGreen\" >You won a prize! Well done!</h1><div style=\"background-color:#6dce98\"><h1 style=\"background-color:MediumSeaGreen\" >Only 2 left to go!</h1><img id=\"box\" src=\"img/prizes/coins.png\"></img><img id=\"box\" src=\"img/empty/redopenbox.png\"></img></div>","key_press":null,"trial_type":"html-keyboard-response","trial_index":87,"time_elapsed":1019890,"internal_node_id":"0.0-19.31-1.31"},{"rt":427,"stimulus":"<p>Choose a box,</p>","button_pressed":3,"trial_type":"html-button-response","trial_index":88,"time_elapsed":1020353,"internal_node_id":"0.0-19.32-0.32"},{"rate":0.9187115470346897,"trial_type":"html-keyboard-response","trial_index":89,"time_elapsed":1020353,"internal_node_id":"0.0-19.32-1.32"},{"rt":null,"stimulus":"<div style=\"background-color:#6dce98\"><h1 style=\"background-color:MediumSeaGreen\" >You won a prize! Well done!</h1><div style=\"background-color:#6dce98\"><h1 style=\"background-color:MediumSeaGreen\" >Only 1 left to go!</h1><img id=\"box\" src=\"img/prizes/ring.png\"></img><img id=\"box\" src=\"img/empty/redopenbox.png\"></img></div>","key_press":null,"trial_type":"html-keyboard-response","trial_index":89,"time_elapsed":1021870,"internal_node_id":"0.0-19.32-1.32"},{"rt":203,"stimulus":"<p>Choose a box,</p>","button_pressed":3,"trial_type":"html-button-response","trial_index":90,"time_elapsed":1022075,"internal_node_id":"0.0-19.33-0.33"},{"rate":0.9187115470346897,"trial_type":"html-keyboard-response","trial_index":91,"time_elapsed":1022075,"internal_node_id":"0.0-19.33-1.33"},{"rt":null,"stimulus":"<div style=\"background-color:#6dce98\"><h1 style=\"background-color:MediumSeaGreen\" >You won a prize! Well done!</h1><div style=\"background-color:#6dce98\"><h1 style=\"background-color:MediumSeaGreen\" >Only 0 left to go!</h1><img id=\"box\" src=\"img/prizes/bear.png\"></img><img id=\"box\" src=\"img/empty/redopenbox.png\"></img></div>","key_press":null,"trial_type":"html-keyboard-response","trial_index":91,"time_elapsed":1023864,"internal_node_id":"0.0-19.33-1.33"},{"rt":16669,"responses":"{\"Q0\":\"It was fun\",\"Q1\":\"The color that I like\"}","trial_type":"survey-text","trial_index":92,"time_elapsed":1040778,"internal_node_id":"0.0-20.0"}]