[{"view_history":"[{\"page_index\":0,\"viewing_time\":12238.945000004605},{\"page_index\":1,\"viewing_time\":3357.6150000008056},{\"page_index\":2,\"viewing_time\":2065.4499999945983},{\"page_index\":3,\"viewing_time\":3115.960000010091},{\"page_index\":4,\"viewing_time\":3221.980000002077},{\"page_index\":5,\"viewing_time\":2040.9049999871058}]","rt":26042.385000007926,"trial_type":"instructions","trial_index":0,"time_elapsed":26049,"internal_node_id":"0.0-0.0"},{"rt":7893.465000001015,"responses":"{\"Q0\":\"Yes\",\"Q1\":\"Yes\",\"Q2\":\"Yes\"}","question_order":"[0,1,2]","trial_type":"survey-multi-choice","trial_index":1,"time_elapsed":33949,"internal_node_id":"0.0-1.0-0.0"},{"rt":8755.460000000312,"responses":"{\"Q0\":\"Yes\",\"Q1\":\"Yes\",\"Q2\":\"Yes\"}","question_order":"[0,1,2]","trial_type":"survey-multi-choice","trial_index":2,"time_elapsed":42717,"internal_node_id":"0.0-2.0-0.0"},{"rt":12904.934999998659,"responses":"{\"Q0\":\"5c967843d676900016e1ac8e\"}","trial_type":"survey-text","trial_index":3,"time_elapsed":55641,"internal_node_id":"0.0-3.0"},{"rt":6053.805000003194,"responses":"{\"Q0\":\"Male\",\"Q1\":\"45-54\"}","question_order":"[0,1]","trial_type":"survey-multi-choice","trial_index":4,"time_elapsed":61701,"internal_node_id":"0.0-4.0"},{"rt":3570.9899999928894,"responses":"{\"Q0\":\"\"}","trial_type":"survey-text","trial_index":5,"time_elapsed":65287,"internal_node_id":"0.0-5.0"},{"view_history":"[{\"page_index\":0,\"viewing_time\":2783.259999996517}]","rt":2783.6799999931827,"trial_type":"instructions","trial_index":6,"time_elapsed":68073,"internal_node_id":"0.0-6.0"},{"rt":18851.57500000787,"responses":"{\"Interested\":0,\"Distressed\":1,\"Excited\":1,\"Upset\":3}","question_order":"[0,1,2,3]","trial_type":"survey-likert","trial_index":7,"time_elapsed":86930,"internal_node_id":"0.0-7.0"},{"rt":12074.850000004517,"responses":"{\"Strong\":3,\"Guilty\":1,\"Scared\":0,\"Hostile\":3}","question_order":"[0,1,2,3]","trial_type":"survey-likert","trial_index":8,"time_elapsed":99012,"internal_node_id":"0.0-8.0"},{"rt":12655.285000000731,"responses":"{\"Enthusiastic\":0,\"Proud\":1,\"Irritable\":3,\"Alert\":1}","question_order":"[0,1,2,3]","trial_type":"survey-likert","trial_index":9,"time_elapsed":111672,"internal_node_id":"0.0-9.0"},{"rt":10509.600000004866,"responses":"{\"Ashamed\":0,\"Inspired\":1,\"Nervous\":3,\"Determined\":1}","question_order":"[0,1,2,3]","trial_type":"survey-likert","trial_index":10,"time_elapsed":122187,"internal_node_id":"0.0-10.0"},{"rt":15564.910000000964,"responses":"{\"Attentive\":2,\"Jittery\":2,\"Active\":1,\"Afraid\":0}","question_order":"[0,1,2,3]","trial_type":"survey-likert","trial_index":11,"time_elapsed":137758,"internal_node_id":"0.0-11.0"},{"rt":16515.09500000975,"responses":"{\"Q0\":2,\"Q1\":2,\"Q2\":3,\"Q3\":2}","question_order":"[0,1,2,3]","trial_type":"survey-likert","trial_index":12,"time_elapsed":154280,"internal_node_id":"0.0-12.0"},{"rt":22537.830000001122,"responses":"{\"Q0\":1,\"Q1\":3,\"Q2\":1,\"Q3\":1}","question_order":"[0,1,2,3]","trial_type":"survey-likert","trial_index":13,"time_elapsed":176824,"internal_node_id":"0.0-13.0"},{"rt":19557.614999997895,"responses":"{\"Q0\":1,\"Q1\":1,\"Q2\":2,\"Q3\":2}","question_order":"[0,1,2,3]","trial_type":"survey-likert","trial_index":14,"time_elapsed":196387,"internal_node_id":"0.0-14.0"},{"rt":18851.479999997537,"responses":"{\"Q0\":1,\"Q1\":3,\"Q2\":0}","question_order":"[0,1,2]","trial_type":"survey-likert","trial_index":15,"time_elapsed":215243,"internal_node_id":"0.0-15.0"},{"view_history":"[{\"page_index\":0,\"viewing_time\":2067.5349999946775},{\"page_index\":1,\"viewing_time\":11166.729999997187},{\"page_index\":2,\"viewing_time\":4245.4950000101235}]","rt":17480.20499999984,"trial_type":"instructions","trial_index":16,"time_elapsed":232735,"internal_node_id":"0.0-16.0"},{"rt":1525.1749999879394,"stimulus":"<p>Choose a box,</p>","button_pressed":2,"trial_type":"html-button-response","trial_index":17,"time_elapsed":234267,"internal_node_id":"0.0-17.0-0.0"},{"rate":0.5748412349494453,"trial_type":"html-keyboard-response","trial_index":18,"time_elapsed":234268,"internal_node_id":"0.0-17.0-1.0"},{"rt":null,"stimulus":"<div style=\"background-color:#6dce98\"><h1 style=\"background-color:MediumSeaGreen\" >You won a prize! Well done!</h1><div style=\"background-color:#6dce98\"><h1 style=\"background-color:MediumSeaGreen\" >Only 19 left to go!</h1><img id=\"box\" src=\"img/prizes/lolipop.png\"></img><img id=\"box\" src=\"img/empty/purpleopenbox.png\"></img></div>","key_press":null,"trial_type":"html-keyboard-response","trial_index":18,"time_elapsed":235772,"internal_node_id":"0.0-17.0-1.0"},{"rt":1600.2499999885913,"stimulus":"<p>Choose a box,</p>","button_pressed":1,"trial_type":"html-button-response","trial_index":19,"time_elapsed":237375,"internal_node_id":"0.0-17.0-0.1"},{"rate":0.4672353603093104,"trial_type":"html-keyboard-response","trial_index":20,"time_elapsed":237375,"internal_node_id":"0.0-17.0-1.1"},{"rt":null,"stimulus":"<div style=\"background-color:#ff7157\"><h1 style=\"background-color:Tomato\">Bad luck! There was no prize in the box!</h1><h1 style=\"background-color:Tomato\">Remember, you need to keep going until you have 20 prizes!</h1><img id=\"box\" src=\"img/sad/greenopenboxsadthumb.png\"></img></div>","key_press":null,"trial_type":"html-keyboard-response","trial_index":20,"time_elapsed":238880,"internal_node_id":"0.0-17.0-1.1"},{"rt":1739.595000006375,"stimulus":"<p>Choose a box,</p>","button_pressed":3,"trial_type":"html-button-response","trial_index":21,"time_elapsed":240625,"internal_node_id":"0.0-17.0-0.2"},{"rate":0.09562725941140561,"trial_type":"html-keyboard-response","trial_index":22,"time_elapsed":240626,"internal_node_id":"0.0-17.0-1.2"},{"rt":null,"stimulus":"<div style=\"background-color:#ff7157\"><h1 style=\"background-color:Tomato\">Bad luck! There was no prize in the box!</h1><h1 style=\"background-color:Tomato\">Remember, you need to keep going until you have 20 prizes!</h1><img id=\"box\" src=\"img/sad/redopenboxsadthumb.png\"></img></div>","key_press":null,"trial_type":"html-keyboard-response","trial_index":22,"time_elapsed":242129,"internal_node_id":"0.0-17.0-1.2"},{"view_history":"[{\"page_index\":0,\"viewing_time\":2212.409999992815}]","rt":2213.049999991199,"trial_type":"instructions","trial_index":23,"time_elapsed":244358,"internal_node_id":"0.0-18.0"},{"rt":2255.3250000055414,"stimulus":"<p>Choose a box,</p>","button_pressed":0,"trial_type":"html-button-response","trial_index":24,"time_elapsed":246618,"internal_node_id":"0.0-19.0-0.0"},{"rate":0.43927297003114746,"trial_type":"html-keyboard-response","trial_index":25,"time_elapsed":246619,"internal_node_id":"0.0-19.0-1.0"},{"rt":null,"stimulus":"<div style=\"background-color:#ff7157\"><h1 style=\"background-color:Tomato\">Bad luck! There was no prize in the box!</h1><h1 style=\"background-color:Tomato\">Remember, you need to keep going until you have 20 prizes!</h1><img id=\"box\" src=\"img/sad/blueopenboxsadthumb.png\"></img></div>","key_press":null,"trial_type":"html-keyboard-response","trial_index":25,"time_elapsed":248122,"internal_node_id":"0.0-19.0-1.0"},{"rt":1170.0649999984307,"stimulus":"<p>Choose a box,</p>","button_pressed":1,"trial_type":"html-button-response","trial_index":26,"time_elapsed":249297,"internal_node_id":"0.0-19.1-0.1"},{"rate":0.830333032446231,"trial_type":"html-keyboard-response","trial_index":27,"time_elapsed":249298,"internal_node_id":"0.0-19.1-1.1"},{"rt":null,"stimulus":"<div style=\"background-color:#6dce98\"><h1 style=\"background-color:MediumSeaGreen\" >You won a prize! Well done!</h1><div style=\"background-color:#6dce98\"><h1 style=\"background-color:MediumSeaGreen\" >Only 19 left to go!</h1><img id=\"box\" src=\"img/prizes/duck.png\"></img><img id=\"box\" src=\"img/empty/greenopenbox.png\"></img></div>","key_press":null,"trial_type":"html-keyboard-response","trial_index":27,"time_elapsed":250802,"internal_node_id":"0.0-19.1-1.1"},{"rt":1017.6300000021001,"stimulus":"<p>Choose a box,</p>","button_pressed":2,"trial_type":"html-button-response","trial_index":28,"time_elapsed":251824,"internal_node_id":"0.0-19.2-0.2"},{"rate":0.6796491325229722,"trial_type":"html-keyboard-response","trial_index":29,"time_elapsed":251824,"internal_node_id":"0.0-19.2-1.2"},{"rt":null,"stimulus":"<div style=\"background-color:#ff7157\"><h1 style=\"background-color:Tomato\">Bad luck! There was no prize in the box!</h1><h1 style=\"background-color:Tomato\">Remember, you need to keep going until you have 20 prizes!</h1><img id=\"box\" src=\"img/sad/purpleopenboxsadthumb.png\"></img></div>","key_press":null,"trial_type":"html-keyboard-response","trial_index":29,"time_elapsed":253327,"internal_node_id":"0.0-19.2-1.2"},{"rt":982.6949999987846,"stimulus":"<p>Choose a box,</p>","button_pressed":3,"trial_type":"html-button-response","trial_index":30,"time_elapsed":254312,"internal_node_id":"0.0-19.3-0.3"},{"rate":0.33449949871885976,"trial_type":"html-keyboard-response","trial_index":31,"time_elapsed":254313,"internal_node_id":"0.0-19.3-1.3"},{"rt":null,"stimulus":"<div style=\"background-color:#6dce98\"><h1 style=\"background-color:MediumSeaGreen\" >You won a prize! Well done!</h1><div style=\"background-color:#6dce98\"><h1 style=\"background-color:MediumSeaGreen\" >Only 18 left to go!</h1><img id=\"box\" src=\"img/prizes/bear.png\"></img><img id=\"box\" src=\"img/empty/redopenbox.png\"></img></div>","key_press":null,"trial_type":"html-keyboard-response","trial_index":31,"time_elapsed":255818,"internal_node_id":"0.0-19.3-1.3"},{"rt":787.4599999922793,"stimulus":"<p>Choose a box,</p>","button_pressed":3,"trial_type":"html-button-response","trial_index":32,"time_elapsed":256610,"internal_node_id":"0.0-19.4-0.4"},{"rate":0.33449949871885976,"trial_type":"html-keyboard-response","trial_index":33,"time_elapsed":256610,"internal_node_id":"0.0-19.4-1.4"},{"rt":null,"stimulus":"<div style=\"background-color:#6dce98\"><h1 style=\"background-color:MediumSeaGreen\" >You won a prize! Well done!</h1><div style=\"background-color:#6dce98\"><h1 style=\"background-color:MediumSeaGreen\" >Only 17 left to go!</h1><img id=\"box\" src=\"img/prizes/bear.png\"></img><img id=\"box\" src=\"img/empty/redopenbox.png\"></img></div>","key_press":null,"trial_type":"html-keyboard-response","trial_index":33,"time_elapsed":258117,"internal_node_id":"0.0-19.4-1.4"},{"rt":600.494999991497,"stimulus":"<p>Choose a box,</p>","button_pressed":3,"trial_type":"html-button-response","trial_index":34,"time_elapsed":258721,"internal_node_id":"0.0-19.5-0.5"},{"rate":0.33449949871885976,"trial_type":"html-keyboard-response","trial_index":35,"time_elapsed":258722,"internal_node_id":"0.0-19.5-1.5"},{"rt":null,"stimulus":"<div style=\"background-color:#ff7157\"><h1 style=\"background-color:Tomato\">Bad luck! There was no prize in the box!</h1><h1 style=\"background-color:Tomato\">Remember, you need to keep going until you have 20 prizes!</h1><img id=\"box\" src=\"img/sad/redopenboxsadthumb.png\"></img></div>","key_press":null,"trial_type":"html-keyboard-response","trial_index":35,"time_elapsed":260227,"internal_node_id":"0.0-19.5-1.5"},{"rt":1369.6899999922607,"stimulus":"<p>Choose a box,</p>","button_pressed":2,"trial_type":"html-button-response","trial_index":36,"time_elapsed":261601,"internal_node_id":"0.0-19.6-0.6"},{"rate":0.6796491325229722,"trial_type":"html-keyboard-response","trial_index":37,"time_elapsed":261602,"internal_node_id":"0.0-19.6-1.6"},{"rt":null,"stimulus":"<div style=\"background-color:#6dce98\"><h1 style=\"background-color:MediumSeaGreen\" >You won a prize! Well done!</h1><div style=\"background-color:#6dce98\"><h1 style=\"background-color:MediumSeaGreen\" >Only 16 left to go!</h1><img id=\"box\" src=\"img/prizes/beachball.png\"></img><img id=\"box\" src=\"img/empty/purpleopenbox.png\"></img></div>","key_press":null,"trial_type":"html-keyboard-response","trial_index":37,"time_elapsed":263107,"internal_node_id":"0.0-19.6-1.6"},{"rt":869.4399999949383,"stimulus":"<p>Choose a box,</p>","button_pressed":1,"trial_type":"html-button-response","trial_index":38,"time_elapsed":263982,"internal_node_id":"0.0-19.7-0.7"},{"rate":0.830333032446231,"trial_type":"html-keyboard-response","trial_index":39,"time_elapsed":263983,"internal_node_id":"0.0-19.7-1.7"},{"rt":null,"stimulus":"<div style=\"background-color:#6dce98\"><h1 style=\"background-color:MediumSeaGreen\" >You won a prize! Well done!</h1><div style=\"background-color:#6dce98\"><h1 style=\"background-color:MediumSeaGreen\" >Only 15 left to go!</h1><img id=\"box\" src=\"img/prizes/duck.png\"></img><img id=\"box\" src=\"img/empty/greenopenbox.png\"></img></div>","key_press":null,"trial_type":"html-keyboard-response","trial_index":39,"time_elapsed":265488,"internal_node_id":"0.0-19.7-1.7"},{"rt":2223.6049999919487,"stimulus":"<p>Choose a box,</p>","button_pressed":0,"trial_type":"html-button-response","trial_index":40,"time_elapsed":267715,"internal_node_id":"0.0-19.8-0.8"},{"rate":0.43927297003114746,"trial_type":"html-keyboard-response","trial_index":41,"time_elapsed":267716,"internal_node_id":"0.0-19.8-1.8"},{"rt":null,"stimulus":"<div style=\"background-color:#6dce98\"><h1 style=\"background-color:MediumSeaGreen\" >You won a prize! Well done!</h1><div style=\"background-color:#6dce98\"><h1 style=\"background-color:MediumSeaGreen\" >Only 14 left to go!</h1><img id=\"box\" src=\"img/prizes/yoyo.png\"></img><img id=\"box\" src=\"img/empty/blueopenbox.png\"></img></div>","key_press":null,"trial_type":"html-keyboard-response","trial_index":41,"time_elapsed":269219,"internal_node_id":"0.0-19.8-1.8"},{"rt":875.930000009248,"stimulus":"<p>Choose a box,</p>","button_pressed":2,"trial_type":"html-button-response","trial_index":42,"time_elapsed":270097,"internal_node_id":"0.0-19.9-0.9"},{"rate":0.6796491325229722,"trial_type":"html-keyboard-response","trial_index":43,"time_elapsed":270098,"internal_node_id":"0.0-19.9-1.9"},{"rt":null,"stimulus":"<div style=\"background-color:#ff7157\"><h1 style=\"background-color:Tomato\">Bad luck! There was no prize in the box!</h1><h1 style=\"background-color:Tomato\">Remember, you need to keep going until you have 20 prizes!</h1><img id=\"box\" src=\"img/sad/purpleopenboxsadthumb.png\"></img></div>","key_press":null,"trial_type":"html-keyboard-response","trial_index":43,"time_elapsed":271601,"internal_node_id":"0.0-19.9-1.9"},{"rt":784.4250000052853,"stimulus":"<p>Choose a box,</p>","button_pressed":1,"trial_type":"html-button-response","trial_index":44,"time_elapsed":272392,"internal_node_id":"0.0-19.10-0.10"},{"rate":0.830333032446231,"trial_type":"html-keyboard-response","trial_index":45,"time_elapsed":272392,"internal_node_id":"0.0-19.10-1.10"},{"rt":null,"stimulus":"<div style=\"background-color:#6dce98\"><h1 style=\"background-color:MediumSeaGreen\" >You won a prize! Well done!</h1><div style=\"background-color:#6dce98\"><h1 style=\"background-color:MediumSeaGreen\" >Only 13 left to go!</h1><img id=\"box\" src=\"img/prizes/bear.png\"></img><img id=\"box\" src=\"img/empty/greenopenbox.png\"></img></div>","key_press":null,"trial_type":"html-keyboard-response","trial_index":45,"time_elapsed":273897,"internal_node_id":"0.0-19.10-1.10"},{"rt":935.7949999975972,"stimulus":"<p>Choose a box,</p>","button_pressed":0,"trial_type":"html-button-response","trial_index":46,"time_elapsed":274835,"internal_node_id":"0.0-19.11-0.11"},{"rate":0.43927297003114746,"trial_type":"html-keyboard-response","trial_index":47,"time_elapsed":274835,"internal_node_id":"0.0-19.11-1.11"},{"rt":null,"stimulus":"<div style=\"background-color:#ff7157\"><h1 style=\"background-color:Tomato\">Bad luck! There was no prize in the box!</h1><h1 style=\"background-color:Tomato\">Remember, you need to keep going until you have 20 prizes!</h1><img id=\"box\" src=\"img/sad/blueopenboxsadthumb.png\"></img></div>","key_press":null,"trial_type":"html-keyboard-response","trial_index":47,"time_elapsed":276339,"internal_node_id":"0.0-19.11-1.11"},{"rt":830.470000000787,"stimulus":"<p>Choose a box,</p>","button_pressed":1,"trial_type":"html-button-response","trial_index":48,"time_elapsed":277178,"internal_node_id":"0.0-19.12-0.12"},{"rate":0.830333032446231,"trial_type":"html-keyboard-response","trial_index":49,"time_elapsed":277179,"internal_node_id":"0.0-19.12-1.12"},{"rt":null,"stimulus":"<div style=\"background-color:#6dce98\"><h1 style=\"background-color:MediumSeaGreen\" >You won a prize! Well done!</h1><div style=\"background-color:#6dce98\"><h1 style=\"background-color:MediumSeaGreen\" >Only 12 left to go!</h1><img id=\"box\" src=\"img/prizes/bear.png\"></img><img id=\"box\" src=\"img/empty/greenopenbox.png\"></img></div>","key_press":null,"trial_type":"html-keyboard-response","trial_index":49,"time_elapsed":278683,"internal_node_id":"0.0-19.12-1.12"},{"rt":453.3449999871664,"stimulus":"<p>Choose a box,</p>","button_pressed":1,"trial_type":"html-button-response","trial_index":50,"time_elapsed":279141,"internal_node_id":"0.0-19.13-0.13"},{"rate":0.830333032446231,"trial_type":"html-keyboard-response","trial_index":51,"time_elapsed":279142,"internal_node_id":"0.0-19.13-1.13"},{"rt":null,"stimulus":"<div style=\"background-color:#6dce98\"><h1 style=\"background-color:MediumSeaGreen\" >You won a prize! Well done!</h1><div style=\"background-color:#6dce98\"><h1 style=\"background-color:MediumSeaGreen\" >Only 11 left to go!</h1><img id=\"box\" src=\"img/prizes/yoyo.png\"></img><img id=\"box\" src=\"img/empty/greenopenbox.png\"></img></div>","key_press":null,"trial_type":"html-keyboard-response","trial_index":51,"time_elapsed":280647,"internal_node_id":"0.0-19.13-1.13"},{"rt":480.6200000020908,"stimulus":"<p>Choose a box,</p>","button_pressed":1,"trial_type":"html-button-response","trial_index":52,"time_elapsed":281131,"internal_node_id":"0.0-19.14-0.14"},{"rate":0.830333032446231,"trial_type":"html-keyboard-response","trial_index":53,"time_elapsed":281132,"internal_node_id":"0.0-19.14-1.14"},{"rt":null,"stimulus":"<div style=\"background-color:#6dce98\"><h1 style=\"background-color:MediumSeaGreen\" >You won a prize! Well done!</h1><div style=\"background-color:#6dce98\"><h1 style=\"background-color:MediumSeaGreen\" >Only 10 left to go!</h1><img id=\"box\" src=\"img/prizes/flowers.png\"></img><img id=\"box\" src=\"img/empty/greenopenbox.png\"></img></div>","key_press":null,"trial_type":"html-keyboard-response","trial_index":53,"time_elapsed":282636,"internal_node_id":"0.0-19.14-1.14"},{"rt":449.2199999949662,"stimulus":"<p>Choose a box,</p>","button_pressed":1,"trial_type":"html-button-response","trial_index":54,"time_elapsed":283091,"internal_node_id":"0.0-19.15-0.15"},{"rate":0.830333032446231,"trial_type":"html-keyboard-response","trial_index":55,"time_elapsed":283091,"internal_node_id":"0.0-19.15-1.15"},{"rt":null,"stimulus":"<div style=\"background-color:#ff7157\"><h1 style=\"background-color:Tomato\">Bad luck! There was no prize in the box!</h1><h1 style=\"background-color:Tomato\">Remember, you need to keep going until you have 20 prizes!</h1><img id=\"box\" src=\"img/sad/greenopenboxsadthumb.png\"></img></div>","key_press":null,"trial_type":"html-keyboard-response","trial_index":55,"time_elapsed":284595,"internal_node_id":"0.0-19.15-1.15"},{"rt":1004.1500000079395,"stimulus":"<p>Choose a box,</p>","button_pressed":3,"trial_type":"html-button-response","trial_index":56,"time_elapsed":285603,"internal_node_id":"0.0-19.16-0.16"},{"rate":0.33449949871885976,"trial_type":"html-keyboard-response","trial_index":57,"time_elapsed":285603,"internal_node_id":"0.0-19.16-1.16"},{"rt":null,"stimulus":"<div style=\"background-color:#ff7157\"><h1 style=\"background-color:Tomato\">Bad luck! There was no prize in the box!</h1><h1 style=\"background-color:Tomato\">Remember, you need to keep going until you have 20 prizes!</h1><img id=\"box\" src=\"img/sad/redopenboxsadthumb.png\"></img></div>","key_press":null,"trial_type":"html-keyboard-response","trial_index":57,"time_elapsed":287108,"internal_node_id":"0.0-19.16-1.16"},{"rt":711.6349999996601,"stimulus":"<p>Choose a box,</p>","button_pressed":2,"trial_type":"html-button-response","trial_index":58,"time_elapsed":287825,"internal_node_id":"0.0-19.17-0.17"},{"rate":0.6796491325229722,"trial_type":"html-keyboard-response","trial_index":59,"time_elapsed":287825,"internal_node_id":"0.0-19.17-1.17"},{"rt":null,"stimulus":"<div style=\"background-color:#6dce98\"><h1 style=\"background-color:MediumSeaGreen\" >You won a prize! Well done!</h1><div style=\"background-color:#6dce98\"><h1 style=\"background-color:MediumSeaGreen\" >Only 9 left to go!</h1><img id=\"box\" src=\"img/prizes/yoyo.png\"></img><img id=\"box\" src=\"img/empty/purpleopenbox.png\"></img></div>","key_press":null,"trial_type":"html-keyboard-response","trial_index":59,"time_elapsed":289329,"internal_node_id":"0.0-19.17-1.17"},{"rt":461.8300000001909,"stimulus":"<p>Choose a box,</p>","button_pressed":2,"trial_type":"html-button-response","trial_index":60,"time_elapsed":289795,"internal_node_id":"0.0-19.18-0.18"},{"rate":0.6796491325229722,"trial_type":"html-keyboard-response","trial_index":61,"time_elapsed":289796,"internal_node_id":"0.0-19.18-1.18"},{"rt":null,"stimulus":"<div style=\"background-color:#ff7157\"><h1 style=\"background-color:Tomato\">Bad luck! There was no prize in the box!</h1><h1 style=\"background-color:Tomato\">Remember, you need to keep going until you have 20 prizes!</h1><img id=\"box\" src=\"img/sad/purpleopenboxsadthumb.png\"></img></div>","key_press":null,"trial_type":"html-keyboard-response","trial_index":61,"time_elapsed":291299,"internal_node_id":"0.0-19.18-1.18"},{"rt":1216.8749999982538,"stimulus":"<p>Choose a box,</p>","button_pressed":2,"trial_type":"html-button-response","trial_index":62,"time_elapsed":292530,"internal_node_id":"0.0-19.19-0.19"},{"rate":0.6796491325229722,"trial_type":"html-keyboard-response","trial_index":63,"time_elapsed":292530,"internal_node_id":"0.0-19.19-1.19"},{"rt":null,"stimulus":"<div style=\"background-color:#6dce98\"><h1 style=\"background-color:MediumSeaGreen\" >You won a prize! Well done!</h1><div style=\"background-color:#6dce98\"><h1 style=\"background-color:MediumSeaGreen\" >Only 8 left to go!</h1><img id=\"box\" src=\"img/prizes/beachball.png\"></img><img id=\"box\" src=\"img/empty/purpleopenbox.png\"></img></div>","key_press":null,"trial_type":"html-keyboard-response","trial_index":63,"time_elapsed":294035,"internal_node_id":"0.0-19.19-1.19"},{"rt":556.8199999979697,"stimulus":"<p>Choose a box,</p>","button_pressed":2,"trial_type":"html-button-response","trial_index":64,"time_elapsed":294596,"internal_node_id":"0.0-19.20-0.20"},{"rate":0.6796491325229722,"trial_type":"html-keyboard-response","trial_index":65,"time_elapsed":294596,"internal_node_id":"0.0-19.20-1.20"},{"rt":null,"stimulus":"<div style=\"background-color:#6dce98\"><h1 style=\"background-color:MediumSeaGreen\" >You won a prize! Well done!</h1><div style=\"background-color:#6dce98\"><h1 style=\"background-color:MediumSeaGreen\" >Only 7 left to go!</h1><img id=\"box\" src=\"img/prizes/beachball.png\"></img><img id=\"box\" src=\"img/empty/purpleopenbox.png\"></img></div>","key_press":null,"trial_type":"html-keyboard-response","trial_index":65,"time_elapsed":296102,"internal_node_id":"0.0-19.20-1.20"},{"rt":494.12499999743886,"stimulus":"<p>Choose a box,</p>","button_pressed":2,"trial_type":"html-button-response","trial_index":66,"time_elapsed":296601,"internal_node_id":"0.0-19.21-0.21"},{"rate":0.6796491325229722,"trial_type":"html-keyboard-response","trial_index":67,"time_elapsed":296601,"internal_node_id":"0.0-19.21-1.21"},{"rt":null,"stimulus":"<div style=\"background-color:#ff7157\"><h1 style=\"background-color:Tomato\">Bad luck! There was no prize in the box!</h1><h1 style=\"background-color:Tomato\">Remember, you need to keep going until you have 20 prizes!</h1><img id=\"box\" src=\"img/sad/purpleopenboxsadthumb.png\"></img></div>","key_press":null,"trial_type":"html-keyboard-response","trial_index":67,"time_elapsed":298108,"internal_node_id":"0.0-19.21-1.21"},{"rt":577.7999999991152,"stimulus":"<p>Choose a box,</p>","button_pressed":2,"trial_type":"html-button-response","trial_index":68,"time_elapsed":298690,"internal_node_id":"0.0-19.22-0.22"},{"rate":0.6796491325229722,"trial_type":"html-keyboard-response","trial_index":69,"time_elapsed":298690,"internal_node_id":"0.0-19.22-1.22"},{"rt":null,"stimulus":"<div style=\"background-color:#ff7157\"><h1 style=\"background-color:Tomato\">Bad luck! There was no prize in the box!</h1><h1 style=\"background-color:Tomato\">Remember, you need to keep going until you have 20 prizes!</h1><img id=\"box\" src=\"img/sad/purpleopenboxsadthumb.png\"></img></div>","key_press":null,"trial_type":"html-keyboard-response","trial_index":69,"time_elapsed":300193,"internal_node_id":"0.0-19.22-1.22"},{"rt":550.8599999884609,"stimulus":"<p>Choose a box,</p>","button_pressed":2,"trial_type":"html-button-response","trial_index":70,"time_elapsed":300748,"internal_node_id":"0.0-19.23-0.23"},{"rate":0.6796491325229722,"trial_type":"html-keyboard-response","trial_index":71,"time_elapsed":300748,"internal_node_id":"0.0-19.23-1.23"},{"rt":null,"stimulus":"<div style=\"background-color:#6dce98\"><h1 style=\"background-color:MediumSeaGreen\" >You won a prize! Well done!</h1><div style=\"background-color:#6dce98\"><h1 style=\"background-color:MediumSeaGreen\" >Only 6 left to go!</h1><img id=\"box\" src=\"img/prizes/choc.png\"></img><img id=\"box\" src=\"img/empty/purpleopenbox.png\"></img></div>","key_press":null,"trial_type":"html-keyboard-response","trial_index":71,"time_elapsed":302251,"internal_node_id":"0.0-19.23-1.23"},{"rt":535.4200000001583,"stimulus":"<p>Choose a box,</p>","button_pressed":2,"trial_type":"html-button-response","trial_index":72,"time_elapsed":302791,"internal_node_id":"0.0-19.24-0.24"},{"rate":0.6796491325229722,"trial_type":"html-keyboard-response","trial_index":73,"time_elapsed":302791,"internal_node_id":"0.0-19.24-1.24"},{"rt":null,"stimulus":"<div style=\"background-color:#6dce98\"><h1 style=\"background-color:MediumSeaGreen\" >You won a prize! Well done!</h1><div style=\"background-color:#6dce98\"><h1 style=\"background-color:MediumSeaGreen\" >Only 5 left to go!</h1><img id=\"box\" src=\"img/prizes/beachball.png\"></img><img id=\"box\" src=\"img/empty/purpleopenbox.png\"></img></div>","key_press":null,"trial_type":"html-keyboard-response","trial_index":73,"time_elapsed":304295,"internal_node_id":"0.0-19.24-1.24"},{"rt":1233.7049999914598,"stimulus":"<p>Choose a box,</p>","button_pressed":2,"trial_type":"html-button-response","trial_index":74,"time_elapsed":305531,"internal_node_id":"0.0-19.25-0.25"},{"rate":0.6796491325229722,"trial_type":"html-keyboard-response","trial_index":75,"time_elapsed":305531,"internal_node_id":"0.0-19.25-1.25"},{"rt":null,"stimulus":"<div style=\"background-color:#ff7157\"><h1 style=\"background-color:Tomato\">Bad luck! There was no prize in the box!</h1><h1 style=\"background-color:Tomato\">Remember, you need to keep going until you have 20 prizes!</h1><img id=\"box\" src=\"img/sad/purpleopenboxsadthumb.png\"></img></div>","key_press":null,"trial_type":"html-keyboard-response","trial_index":75,"time_elapsed":307034,"internal_node_id":"0.0-19.25-1.25"},{"rt":685.9950000070967,"stimulus":"<p>Choose a box,</p>","button_pressed":1,"trial_type":"html-button-response","trial_index":76,"time_elapsed":307722,"internal_node_id":"0.0-19.26-0.26"},{"rate":0.830333032446231,"trial_type":"html-keyboard-response","trial_index":77,"time_elapsed":307722,"internal_node_id":"0.0-19.26-1.26"},{"rt":null,"stimulus":"<div style=\"background-color:#6dce98\"><h1 style=\"background-color:MediumSeaGreen\" >You won a prize! Well done!</h1><div style=\"background-color:#6dce98\"><h1 style=\"background-color:MediumSeaGreen\" >Only 4 left to go!</h1><img id=\"box\" src=\"img/prizes/choc.png\"></img><img id=\"box\" src=\"img/empty/greenopenbox.png\"></img></div>","key_press":null,"trial_type":"html-keyboard-response","trial_index":77,"time_elapsed":309225,"internal_node_id":"0.0-19.26-1.26"},{"rt":459.580000009737,"stimulus":"<p>Choose a box,</p>","button_pressed":1,"trial_type":"html-button-response","trial_index":78,"time_elapsed":309688,"internal_node_id":"0.0-19.27-0.27"},{"rate":0.830333032446231,"trial_type":"html-keyboard-response","trial_index":79,"time_elapsed":309689,"internal_node_id":"0.0-19.27-1.27"},{"rt":null,"stimulus":"<div style=\"background-color:#ff7157\"><h1 style=\"background-color:Tomato\">Bad luck! There was no prize in the box!</h1><h1 style=\"background-color:Tomato\">Remember, you need to keep going until you have 20 prizes!</h1><img id=\"box\" src=\"img/sad/greenopenboxsadthumb.png\"></img></div>","key_press":null,"trial_type":"html-keyboard-response","trial_index":79,"time_elapsed":311191,"internal_node_id":"0.0-19.27-1.27"},{"rt":931.4199999935227,"stimulus":"<p>Choose a box,</p>","button_pressed":0,"trial_type":"html-button-response","trial_index":80,"time_elapsed":312125,"internal_node_id":"0.0-19.28-0.28"},{"rate":0.43927297003114746,"trial_type":"html-keyboard-response","trial_index":81,"time_elapsed":312125,"internal_node_id":"0.0-19.28-1.28"},{"rt":null,"stimulus":"<div style=\"background-color:#6dce98\"><h1 style=\"background-color:MediumSeaGreen\" >You won a prize! Well done!</h1><div style=\"background-color:#6dce98\"><h1 style=\"background-color:MediumSeaGreen\" >Only 3 left to go!</h1><img id=\"box\" src=\"img/prizes/bear.png\"></img><img id=\"box\" src=\"img/empty/blueopenbox.png\"></img></div>","key_press":null,"trial_type":"html-keyboard-response","trial_index":81,"time_elapsed":313628,"internal_node_id":"0.0-19.28-1.28"},{"rt":706.2050000095041,"stimulus":"<p>Choose a box,</p>","button_pressed":0,"trial_type":"html-button-response","trial_index":82,"time_elapsed":314337,"internal_node_id":"0.0-19.29-0.29"},{"rate":0.43927297003114746,"trial_type":"html-keyboard-response","trial_index":83,"time_elapsed":314337,"internal_node_id":"0.0-19.29-1.29"},{"rt":null,"stimulus":"<div style=\"background-color:#6dce98\"><h1 style=\"background-color:MediumSeaGreen\" >You won a prize! Well done!</h1><div style=\"background-color:#6dce98\"><h1 style=\"background-color:MediumSeaGreen\" >Only 2 left to go!</h1><img id=\"box\" src=\"img/prizes/duck.png\"></img><img id=\"box\" src=\"img/empty/blueopenbox.png\"></img></div>","key_press":null,"trial_type":"html-keyboard-response","trial_index":83,"time_elapsed":315840,"internal_node_id":"0.0-19.29-1.29"},{"rt":496.2299999897368,"stimulus":"<p>Choose a box,</p>","button_pressed":0,"trial_type":"html-button-response","trial_index":84,"time_elapsed":316340,"internal_node_id":"0.0-19.30-0.30"},{"rate":0.43927297003114746,"trial_type":"html-keyboard-response","trial_index":85,"time_elapsed":316341,"internal_node_id":"0.0-19.30-1.30"},{"rt":null,"stimulus":"<div style=\"background-color:#6dce98\"><h1 style=\"background-color:MediumSeaGreen\" >You won a prize! Well done!</h1><div style=\"background-color:#6dce98\"><h1 style=\"background-color:MediumSeaGreen\" >Only 1 left to go!</h1><img id=\"box\" src=\"img/prizes/ring.png\"></img><img id=\"box\" src=\"img/empty/blueopenbox.png\"></img></div>","key_press":null,"trial_type":"html-keyboard-response","trial_index":85,"time_elapsed":317845,"internal_node_id":"0.0-19.30-1.30"},{"rt":2087.199999994482,"stimulus":"<p>Choose a box,</p>","button_pressed":2,"trial_type":"html-button-response","trial_index":86,"time_elapsed":319937,"internal_node_id":"0.0-19.31-0.31"},{"rate":0.6796491325229722,"trial_type":"html-keyboard-response","trial_index":87,"time_elapsed":319937,"internal_node_id":"0.0-19.31-1.31"},{"rt":null,"stimulus":"<div style=\"background-color:#6dce98\"><h1 style=\"background-color:MediumSeaGreen\" >You won a prize! Well done!</h1><div style=\"background-color:#6dce98\"><h1 style=\"background-color:MediumSeaGreen\" >Only 0 left to go!</h1><img id=\"box\" src=\"img/prizes/ring.png\"></img><img id=\"box\" src=\"img/empty/purpleopenbox.png\"></img></div>","key_press":null,"trial_type":"html-keyboard-response","trial_index":87,"time_elapsed":321442,"internal_node_id":"0.0-19.31-1.31"},{"rt":25658.65000001213,"responses":"{\"Q0\":\"fun\",\"Q1\":\"If one opened with a prize, keep pressing until it was empty \"}","trial_type":"survey-text","trial_index":88,"time_elapsed":347262,"internal_node_id":"0.0-20.0"}]