[{"view_history":"[{\"page_index\":0,\"viewing_time\":9980.285000012373},{\"page_index\":1,\"viewing_time\":5164.9299999990035},{\"page_index\":2,\"viewing_time\":3617.7199999947334},{\"page_index\":3,\"viewing_time\":1406.0500000050524},{\"page_index\":4,\"viewing_time\":1629.6699999948032},{\"page_index\":5,\"viewing_time\":3229.300000006333}]","rt":25028.885000006994,"trial_type":"instructions","trial_index":0,"time_elapsed":25031,"internal_node_id":"0.0-0.0"},{"rt":6547.5250000017695,"responses":"{\"Q0\":\"Yes\",\"Q1\":\"Yes\",\"Q2\":\"Yes\"}","question_order":"[0,1,2]","trial_type":"survey-multi-choice","trial_index":1,"time_elapsed":31581,"internal_node_id":"0.0-1.0-0.0"},{"rt":8159.265000009327,"responses":"{\"Q0\":\"Yes\",\"Q1\":\"Yes\",\"Q2\":\"Yes\"}","question_order":"[0,1,2]","trial_type":"survey-multi-choice","trial_index":2,"time_elapsed":39741,"internal_node_id":"0.0-2.0-0.0"},{"rt":6781.520000004093,"responses":"{\"Q0\":\"5dbc09abbc03131b83aeeacd\"}","trial_type":"survey-text","trial_index":3,"time_elapsed":46526,"internal_node_id":"0.0-3.0"},{"rt":5612.049999996088,"responses":"{\"Q0\":\"Female\",\"Q1\":\"25-34\"}","question_order":"[0,1]","trial_type":"survey-multi-choice","trial_index":4,"time_elapsed":52139,"internal_node_id":"0.0-4.0"},{"rt":4428.549999996903,"responses":"{\"Q0\":\"\"}","trial_type":"survey-text","trial_index":5,"time_elapsed":56569,"internal_node_id":"0.0-5.0"},{"view_history":"[{\"page_index\":0,\"viewing_time\":3839.845000009518}]","rt":3839.9999999965075,"trial_type":"instructions","trial_index":6,"time_elapsed":60409,"internal_node_id":"0.0-6.0"},{"rt":9196.684999988065,"responses":"{\"Interested\":3,\"Distressed\":1,\"Excited\":2,\"Upset\":2}","question_order":"[0,1,2,3]","trial_type":"survey-likert","trial_index":7,"time_elapsed":69608,"internal_node_id":"0.0-7.0"},{"rt":7212.335000003804,"responses":"{\"Strong\":3,\"Guilty\":0,\"Scared\":1,\"Hostile\":2}","question_order":"[0,1,2,3]","trial_type":"survey-likert","trial_index":8,"time_elapsed":76821,"internal_node_id":"0.0-8.0"},{"rt":8320.575000005192,"responses":"{\"Enthusiastic\":3,\"Proud\":3,\"Irritable\":2,\"Alert\":1}","question_order":"[0,1,2,3]","trial_type":"survey-likert","trial_index":9,"time_elapsed":85144,"internal_node_id":"0.0-9.0"},{"rt":7342.5850000057835,"responses":"{\"Ashamed\":0,\"Inspired\":3,\"Nervous\":2,\"Determined\":3}","question_order":"[0,1,2,3]","trial_type":"survey-likert","trial_index":10,"time_elapsed":92488,"internal_node_id":"0.0-10.0"},{"rt":8340.374999999767,"responses":"{\"Attentive\":3,\"Jittery\":1,\"Active\":2,\"Afraid\":2}","question_order":"[0,1,2,3]","trial_type":"survey-likert","trial_index":11,"time_elapsed":100830,"internal_node_id":"0.0-11.0"},{"rt":17162.589999992633,"responses":"{\"Q0\":0,\"Q1\":1,\"Q2\":1,\"Q3\":1}","question_order":"[0,1,2,3]","trial_type":"survey-likert","trial_index":12,"time_elapsed":117995,"internal_node_id":"0.0-12.0"},{"rt":15400.099999998929,"responses":"{\"Q0\":0,\"Q1\":0,\"Q2\":1,\"Q3\":0}","question_order":"[0,1,2,3]","trial_type":"survey-likert","trial_index":13,"time_elapsed":133397,"internal_node_id":"0.0-13.0"},{"rt":9390.375000002678,"responses":"{\"Q0\":1,\"Q1\":1,\"Q2\":1,\"Q3\":1}","question_order":"[0,1,2,3]","trial_type":"survey-likert","trial_index":14,"time_elapsed":142789,"internal_node_id":"0.0-14.0"},{"rt":7525.25500000047,"responses":"{\"Q0\":0,\"Q1\":1,\"Q2\":1}","question_order":"[0,1,2]","trial_type":"survey-likert","trial_index":15,"time_elapsed":150316,"internal_node_id":"0.0-15.0"},{"view_history":"[{\"page_index\":0,\"viewing_time\":2520.9849999955622},{\"page_index\":1,\"viewing_time\":5856.744999997318},{\"page_index\":2,\"viewing_time\":7750.970000008238}]","rt":16128.899999996065,"trial_type":"instructions","trial_index":16,"time_elapsed":166449,"internal_node_id":"0.0-16.0"},{"rt":1526.7999999923632,"stimulus":"<p>Choose a box,</p>","button_pressed":0,"trial_type":"html-button-response","trial_index":17,"time_elapsed":167979,"internal_node_id":"0.0-17.0-0.0"},{"rate":0.38725441433379976,"trial_type":"html-keyboard-response","trial_index":18,"time_elapsed":167979,"internal_node_id":"0.0-17.0-1.0"},{"rt":null,"stimulus":"<div style=\"background-color:#ff7157\"><h1 style=\"background-color:Tomato\">Bad luck! There was no prize in the box!</h1><h1 style=\"background-color:Tomato\">Remember, you need to keep going until you have 20 prizes!</h1><img id=\"box\" src=\"img/sad/blueopenboxsadthumb.png\"></img></div>","key_press":null,"trial_type":"html-keyboard-response","trial_index":18,"time_elapsed":169481,"internal_node_id":"0.0-17.0-1.0"},{"rt":1121.0900000005495,"stimulus":"<p>Choose a box,</p>","button_pressed":2,"trial_type":"html-button-response","trial_index":19,"time_elapsed":170605,"internal_node_id":"0.0-17.0-0.1"},{"rate":0.050082049451286435,"trial_type":"html-keyboard-response","trial_index":20,"time_elapsed":170605,"internal_node_id":"0.0-17.0-1.1"},{"rt":null,"stimulus":"<div style=\"background-color:#ff7157\"><h1 style=\"background-color:Tomato\">Bad luck! There was no prize in the box!</h1><h1 style=\"background-color:Tomato\">Remember, you need to keep going until you have 20 prizes!</h1><img id=\"box\" src=\"img/sad/purpleopenboxsadthumb.png\"></img></div>","key_press":null,"trial_type":"html-keyboard-response","trial_index":20,"time_elapsed":172106,"internal_node_id":"0.0-17.0-1.1"},{"rt":992.6350000023376,"stimulus":"<p>Choose a box,</p>","button_pressed":1,"trial_type":"html-button-response","trial_index":21,"time_elapsed":173100,"internal_node_id":"0.0-17.0-0.2"},{"rate":0.8779363212144858,"trial_type":"html-keyboard-response","trial_index":22,"time_elapsed":173101,"internal_node_id":"0.0-17.0-1.2"},{"rt":null,"stimulus":"<div style=\"background-color:#6dce98\"><h1 style=\"background-color:MediumSeaGreen\" >You won a prize! Well done!</h1><div style=\"background-color:#6dce98\"><h1 style=\"background-color:MediumSeaGreen\" >Only 19 left to go!</h1><img id=\"box\" src=\"img/prizes/beachball.png\"></img><img id=\"box\" src=\"img/empty/greenopenbox.png\"></img></div>","key_press":null,"trial_type":"html-keyboard-response","trial_index":22,"time_elapsed":174602,"internal_node_id":"0.0-17.0-1.2"},{"view_history":"[{\"page_index\":0,\"viewing_time\":1516.6450000106124}]","rt":1516.8400000111433,"trial_type":"instructions","trial_index":23,"time_elapsed":176125,"internal_node_id":"0.0-18.0"},{"rt":924.2249999952037,"stimulus":"<p>Choose a box,</p>","button_pressed":1,"trial_type":"html-button-response","trial_index":24,"time_elapsed":177050,"internal_node_id":"0.0-19.0-0.0"},{"rate":0.4641863203978912,"trial_type":"html-keyboard-response","trial_index":25,"time_elapsed":177051,"internal_node_id":"0.0-19.0-1.0"},{"rt":null,"stimulus":"<div style=\"background-color:#6dce98\"><h1 style=\"background-color:MediumSeaGreen\" >You won a prize! Well done!</h1><div style=\"background-color:#6dce98\"><h1 style=\"background-color:MediumSeaGreen\" >Only 19 left to go!</h1><img id=\"box\" src=\"img/prizes/duck.png\"></img><img id=\"box\" src=\"img/empty/greenopenbox.png\"></img></div>","key_press":null,"trial_type":"html-keyboard-response","trial_index":25,"time_elapsed":178553,"internal_node_id":"0.0-19.0-1.0"},{"rt":950.410000004922,"stimulus":"<p>Choose a box,</p>","button_pressed":1,"trial_type":"html-button-response","trial_index":26,"time_elapsed":179506,"internal_node_id":"0.0-19.1-0.1"},{"rate":0.4641863203978912,"trial_type":"html-keyboard-response","trial_index":27,"time_elapsed":179506,"internal_node_id":"0.0-19.1-1.1"},{"rt":null,"stimulus":"<div style=\"background-color:#6dce98\"><h1 style=\"background-color:MediumSeaGreen\" >You won a prize! Well done!</h1><div style=\"background-color:#6dce98\"><h1 style=\"background-color:MediumSeaGreen\" >Only 18 left to go!</h1><img id=\"box\" src=\"img/prizes/lolipop.png\"></img><img id=\"box\" src=\"img/empty/greenopenbox.png\"></img></div>","key_press":null,"trial_type":"html-keyboard-response","trial_index":27,"time_elapsed":181008,"internal_node_id":"0.0-19.1-1.1"},{"rt":952.2350000042934,"stimulus":"<p>Choose a box,</p>","button_pressed":1,"trial_type":"html-button-response","trial_index":28,"time_elapsed":181961,"internal_node_id":"0.0-19.2-0.2"},{"rate":0.4641863203978912,"trial_type":"html-keyboard-response","trial_index":29,"time_elapsed":181961,"internal_node_id":"0.0-19.2-1.2"},{"rt":null,"stimulus":"<div style=\"background-color:#6dce98\"><h1 style=\"background-color:MediumSeaGreen\" >You won a prize! Well done!</h1><div style=\"background-color:#6dce98\"><h1 style=\"background-color:MediumSeaGreen\" >Only 17 left to go!</h1><img id=\"box\" src=\"img/prizes/choc.png\"></img><img id=\"box\" src=\"img/empty/greenopenbox.png\"></img></div>","key_press":null,"trial_type":"html-keyboard-response","trial_index":29,"time_elapsed":183462,"internal_node_id":"0.0-19.2-1.2"},{"rt":858.5949999978766,"stimulus":"<p>Choose a box,</p>","button_pressed":1,"trial_type":"html-button-response","trial_index":30,"time_elapsed":184323,"internal_node_id":"0.0-19.3-0.3"},{"rate":0.4641863203978912,"trial_type":"html-keyboard-response","trial_index":31,"time_elapsed":184324,"internal_node_id":"0.0-19.3-1.3"},{"rt":null,"stimulus":"<div style=\"background-color:#ff7157\"><h1 style=\"background-color:Tomato\">Bad luck! There was no prize in the box!</h1><h1 style=\"background-color:Tomato\">Remember, you need to keep going until you have 20 prizes!</h1><img id=\"box\" src=\"img/sad/greenopenboxsadthumb.png\"></img></div>","key_press":null,"trial_type":"html-keyboard-response","trial_index":31,"time_elapsed":185825,"internal_node_id":"0.0-19.3-1.3"},{"rt":1001.1499999964144,"stimulus":"<p>Choose a box,</p>","button_pressed":3,"trial_type":"html-button-response","trial_index":32,"time_elapsed":186829,"internal_node_id":"0.0-19.4-0.4"},{"rate":0.19616575025468147,"trial_type":"html-keyboard-response","trial_index":33,"time_elapsed":186829,"internal_node_id":"0.0-19.4-1.4"},{"rt":null,"stimulus":"<div style=\"background-color:#ff7157\"><h1 style=\"background-color:Tomato\">Bad luck! There was no prize in the box!</h1><h1 style=\"background-color:Tomato\">Remember, you need to keep going until you have 20 prizes!</h1><img id=\"box\" src=\"img/sad/redopenboxsadthumb.png\"></img></div>","key_press":null,"trial_type":"html-keyboard-response","trial_index":33,"time_elapsed":188331,"internal_node_id":"0.0-19.4-1.4"},{"rt":908.3899999968708,"stimulus":"<p>Choose a box,</p>","button_pressed":0,"trial_type":"html-button-response","trial_index":34,"time_elapsed":189242,"internal_node_id":"0.0-19.5-0.5"},{"rate":0.770477840190862,"trial_type":"html-keyboard-response","trial_index":35,"time_elapsed":189242,"internal_node_id":"0.0-19.5-1.5"},{"rt":null,"stimulus":"<div style=\"background-color:#6dce98\"><h1 style=\"background-color:MediumSeaGreen\" >You won a prize! Well done!</h1><div style=\"background-color:#6dce98\"><h1 style=\"background-color:MediumSeaGreen\" >Only 16 left to go!</h1><img id=\"box\" src=\"img/prizes/bear.png\"></img><img id=\"box\" src=\"img/empty/blueopenbox.png\"></img></div>","key_press":null,"trial_type":"html-keyboard-response","trial_index":35,"time_elapsed":190744,"internal_node_id":"0.0-19.5-1.5"},{"rt":614.6699999953853,"stimulus":"<p>Choose a box,</p>","button_pressed":0,"trial_type":"html-button-response","trial_index":36,"time_elapsed":191360,"internal_node_id":"0.0-19.6-0.6"},{"rate":0.770477840190862,"trial_type":"html-keyboard-response","trial_index":37,"time_elapsed":191360,"internal_node_id":"0.0-19.6-1.6"},{"rt":null,"stimulus":"<div style=\"background-color:#6dce98\"><h1 style=\"background-color:MediumSeaGreen\" >You won a prize! Well done!</h1><div style=\"background-color:#6dce98\"><h1 style=\"background-color:MediumSeaGreen\" >Only 15 left to go!</h1><img id=\"box\" src=\"img/prizes/ring.png\"></img><img id=\"box\" src=\"img/empty/blueopenbox.png\"></img></div>","key_press":null,"trial_type":"html-keyboard-response","trial_index":37,"time_elapsed":192863,"internal_node_id":"0.0-19.6-1.6"},{"rt":684.6599999989849,"stimulus":"<p>Choose a box,</p>","button_pressed":2,"trial_type":"html-button-response","trial_index":38,"time_elapsed":193550,"internal_node_id":"0.0-19.7-0.7"},{"rate":0.32054598403036294,"trial_type":"html-keyboard-response","trial_index":39,"time_elapsed":193550,"internal_node_id":"0.0-19.7-1.7"},{"rt":null,"stimulus":"<div style=\"background-color:#ff7157\"><h1 style=\"background-color:Tomato\">Bad luck! There was no prize in the box!</h1><h1 style=\"background-color:Tomato\">Remember, you need to keep going until you have 20 prizes!</h1><img id=\"box\" src=\"img/sad/purpleopenboxsadthumb.png\"></img></div>","key_press":null,"trial_type":"html-keyboard-response","trial_index":39,"time_elapsed":195052,"internal_node_id":"0.0-19.7-1.7"},{"rt":533.2550000021001,"stimulus":"<p>Choose a box,</p>","button_pressed":3,"trial_type":"html-button-response","trial_index":40,"time_elapsed":195586,"internal_node_id":"0.0-19.8-0.8"},{"rate":0.19616575025468147,"trial_type":"html-keyboard-response","trial_index":41,"time_elapsed":195586,"internal_node_id":"0.0-19.8-1.8"},{"rt":null,"stimulus":"<div style=\"background-color:#ff7157\"><h1 style=\"background-color:Tomato\">Bad luck! There was no prize in the box!</h1><h1 style=\"background-color:Tomato\">Remember, you need to keep going until you have 20 prizes!</h1><img id=\"box\" src=\"img/sad/redopenboxsadthumb.png\"></img></div>","key_press":null,"trial_type":"html-keyboard-response","trial_index":41,"time_elapsed":197089,"internal_node_id":"0.0-19.8-1.8"},{"rt":584.950000004028,"stimulus":"<p>Choose a box,</p>","button_pressed":0,"trial_type":"html-button-response","trial_index":42,"time_elapsed":197674,"internal_node_id":"0.0-19.9-0.9"},{"rate":0.770477840190862,"trial_type":"html-keyboard-response","trial_index":43,"time_elapsed":197675,"internal_node_id":"0.0-19.9-1.9"},{"rt":null,"stimulus":"<div style=\"background-color:#6dce98\"><h1 style=\"background-color:MediumSeaGreen\" >You won a prize! Well done!</h1><div style=\"background-color:#6dce98\"><h1 style=\"background-color:MediumSeaGreen\" >Only 14 left to go!</h1><img id=\"box\" src=\"img/prizes/flowers.png\"></img><img id=\"box\" src=\"img/empty/blueopenbox.png\"></img></div>","key_press":null,"trial_type":"html-keyboard-response","trial_index":43,"time_elapsed":199177,"internal_node_id":"0.0-19.9-1.9"},{"rt":1011.0350000031758,"stimulus":"<p>Choose a box,</p>","button_pressed":2,"trial_type":"html-button-response","trial_index":44,"time_elapsed":200190,"internal_node_id":"0.0-19.10-0.10"},{"rate":0.32054598403036294,"trial_type":"html-keyboard-response","trial_index":45,"time_elapsed":200191,"internal_node_id":"0.0-19.10-1.10"},{"rt":null,"stimulus":"<div style=\"background-color:#6dce98\"><h1 style=\"background-color:MediumSeaGreen\" >You won a prize! Well done!</h1><div style=\"background-color:#6dce98\"><h1 style=\"background-color:MediumSeaGreen\" >Only 13 left to go!</h1><img id=\"box\" src=\"img/prizes/beachball.png\"></img><img id=\"box\" src=\"img/empty/purpleopenbox.png\"></img></div>","key_press":null,"trial_type":"html-keyboard-response","trial_index":45,"time_elapsed":201692,"internal_node_id":"0.0-19.10-1.10"},{"rt":685.6949999928474,"stimulus":"<p>Choose a box,</p>","button_pressed":2,"trial_type":"html-button-response","trial_index":46,"time_elapsed":202379,"internal_node_id":"0.0-19.11-0.11"},{"rate":0.32054598403036294,"trial_type":"html-keyboard-response","trial_index":47,"time_elapsed":202380,"internal_node_id":"0.0-19.11-1.11"},{"rt":null,"stimulus":"<div style=\"background-color:#ff7157\"><h1 style=\"background-color:Tomato\">Bad luck! There was no prize in the box!</h1><h1 style=\"background-color:Tomato\">Remember, you need to keep going until you have 20 prizes!</h1><img id=\"box\" src=\"img/sad/purpleopenboxsadthumb.png\"></img></div>","key_press":null,"trial_type":"html-keyboard-response","trial_index":47,"time_elapsed":203882,"internal_node_id":"0.0-19.11-1.11"},{"rt":1203.5849999956554,"stimulus":"<p>Choose a box,</p>","button_pressed":1,"trial_type":"html-button-response","trial_index":48,"time_elapsed":205088,"internal_node_id":"0.0-19.12-0.12"},{"rate":0.4641863203978912,"trial_type":"html-keyboard-response","trial_index":49,"time_elapsed":205088,"internal_node_id":"0.0-19.12-1.12"},{"rt":null,"stimulus":"<div style=\"background-color:#6dce98\"><h1 style=\"background-color:MediumSeaGreen\" >You won a prize! Well done!</h1><div style=\"background-color:#6dce98\"><h1 style=\"background-color:MediumSeaGreen\" >Only 12 left to go!</h1><img id=\"box\" src=\"img/prizes/bear.png\"></img><img id=\"box\" src=\"img/empty/greenopenbox.png\"></img></div>","key_press":null,"trial_type":"html-keyboard-response","trial_index":49,"time_elapsed":206589,"internal_node_id":"0.0-19.12-1.12"},{"rt":553.0699999944773,"stimulus":"<p>Choose a box,</p>","button_pressed":1,"trial_type":"html-button-response","trial_index":50,"time_elapsed":207145,"internal_node_id":"0.0-19.13-0.13"},{"rate":0.4641863203978912,"trial_type":"html-keyboard-response","trial_index":51,"time_elapsed":207145,"internal_node_id":"0.0-19.13-1.13"},{"rt":null,"stimulus":"<div style=\"background-color:#6dce98\"><h1 style=\"background-color:MediumSeaGreen\" >You won a prize! Well done!</h1><div style=\"background-color:#6dce98\"><h1 style=\"background-color:MediumSeaGreen\" >Only 11 left to go!</h1><img id=\"box\" src=\"img/prizes/bear.png\"></img><img id=\"box\" src=\"img/empty/greenopenbox.png\"></img></div>","key_press":null,"trial_type":"html-keyboard-response","trial_index":51,"time_elapsed":208646,"internal_node_id":"0.0-19.13-1.13"},{"rt":524.0699999994831,"stimulus":"<p>Choose a box,</p>","button_pressed":1,"trial_type":"html-button-response","trial_index":52,"time_elapsed":209171,"internal_node_id":"0.0-19.14-0.14"},{"rate":0.4641863203978912,"trial_type":"html-keyboard-response","trial_index":53,"time_elapsed":209172,"internal_node_id":"0.0-19.14-1.14"},{"rt":null,"stimulus":"<div style=\"background-color:#6dce98\"><h1 style=\"background-color:MediumSeaGreen\" >You won a prize! Well done!</h1><div style=\"background-color:#6dce98\"><h1 style=\"background-color:MediumSeaGreen\" >Only 10 left to go!</h1><img id=\"box\" src=\"img/prizes/ring.png\"></img><img id=\"box\" src=\"img/empty/greenopenbox.png\"></img></div>","key_press":null,"trial_type":"html-keyboard-response","trial_index":53,"time_elapsed":210674,"internal_node_id":"0.0-19.14-1.14"},{"rt":1215.9150000079535,"stimulus":"<p>Choose a box,</p>","button_pressed":0,"trial_type":"html-button-response","trial_index":54,"time_elapsed":211891,"internal_node_id":"0.0-19.15-0.15"},{"rate":0.770477840190862,"trial_type":"html-keyboard-response","trial_index":55,"time_elapsed":211891,"internal_node_id":"0.0-19.15-1.15"},{"rt":null,"stimulus":"<div style=\"background-color:#6dce98\"><h1 style=\"background-color:MediumSeaGreen\" >You won a prize! Well done!</h1><div style=\"background-color:#6dce98\"><h1 style=\"background-color:MediumSeaGreen\" >Only 9 left to go!</h1><img id=\"box\" src=\"img/prizes/coins.png\"></img><img id=\"box\" src=\"img/empty/blueopenbox.png\"></img></div>","key_press":null,"trial_type":"html-keyboard-response","trial_index":55,"time_elapsed":213394,"internal_node_id":"0.0-19.15-1.15"},{"rt":806.4049999957206,"stimulus":"<p>Choose a box,</p>","button_pressed":0,"trial_type":"html-button-response","trial_index":56,"time_elapsed":214203,"internal_node_id":"0.0-19.16-0.16"},{"rate":0.770477840190862,"trial_type":"html-keyboard-response","trial_index":57,"time_elapsed":214203,"internal_node_id":"0.0-19.16-1.16"},{"rt":null,"stimulus":"<div style=\"background-color:#6dce98\"><h1 style=\"background-color:MediumSeaGreen\" >You won a prize! Well done!</h1><div style=\"background-color:#6dce98\"><h1 style=\"background-color:MediumSeaGreen\" >Only 8 left to go!</h1><img id=\"box\" src=\"img/prizes/duck.png\"></img><img id=\"box\" src=\"img/empty/blueopenbox.png\"></img></div>","key_press":null,"trial_type":"html-keyboard-response","trial_index":57,"time_elapsed":215704,"internal_node_id":"0.0-19.16-1.16"},{"rt":544.4149999966612,"stimulus":"<p>Choose a box,</p>","button_pressed":0,"trial_type":"html-button-response","trial_index":58,"time_elapsed":216249,"internal_node_id":"0.0-19.17-0.17"},{"rate":0.770477840190862,"trial_type":"html-keyboard-response","trial_index":59,"time_elapsed":216250,"internal_node_id":"0.0-19.17-1.17"},{"rt":null,"stimulus":"<div style=\"background-color:#6dce98\"><h1 style=\"background-color:MediumSeaGreen\" >You won a prize! Well done!</h1><div style=\"background-color:#6dce98\"><h1 style=\"background-color:MediumSeaGreen\" >Only 7 left to go!</h1><img id=\"box\" src=\"img/prizes/choc.png\"></img><img id=\"box\" src=\"img/empty/blueopenbox.png\"></img></div>","key_press":null,"trial_type":"html-keyboard-response","trial_index":59,"time_elapsed":217751,"internal_node_id":"0.0-19.17-1.17"},{"rt":931.2899999931687,"stimulus":"<p>Choose a box,</p>","button_pressed":2,"trial_type":"html-button-response","trial_index":60,"time_elapsed":218683,"internal_node_id":"0.0-19.18-0.18"},{"rate":0.32054598403036294,"trial_type":"html-keyboard-response","trial_index":61,"time_elapsed":218683,"internal_node_id":"0.0-19.18-1.18"},{"rt":null,"stimulus":"<div style=\"background-color:#ff7157\"><h1 style=\"background-color:Tomato\">Bad luck! There was no prize in the box!</h1><h1 style=\"background-color:Tomato\">Remember, you need to keep going until you have 20 prizes!</h1><img id=\"box\" src=\"img/sad/purpleopenboxsadthumb.png\"></img></div>","key_press":null,"trial_type":"html-keyboard-response","trial_index":61,"time_elapsed":220185,"internal_node_id":"0.0-19.18-1.18"},{"rt":682.4149999883957,"stimulus":"<p>Choose a box,</p>","button_pressed":3,"trial_type":"html-button-response","trial_index":62,"time_elapsed":220873,"internal_node_id":"0.0-19.19-0.19"},{"rate":0.19616575025468147,"trial_type":"html-keyboard-response","trial_index":63,"time_elapsed":220873,"internal_node_id":"0.0-19.19-1.19"},{"rt":null,"stimulus":"<div style=\"background-color:#ff7157\"><h1 style=\"background-color:Tomato\">Bad luck! There was no prize in the box!</h1><h1 style=\"background-color:Tomato\">Remember, you need to keep going until you have 20 prizes!</h1><img id=\"box\" src=\"img/sad/redopenboxsadthumb.png\"></img></div>","key_press":null,"trial_type":"html-keyboard-response","trial_index":63,"time_elapsed":222374,"internal_node_id":"0.0-19.19-1.19"},{"rt":574.7299999929965,"stimulus":"<p>Choose a box,</p>","button_pressed":0,"trial_type":"html-button-response","trial_index":64,"time_elapsed":222950,"internal_node_id":"0.0-19.20-0.20"},{"rate":0.770477840190862,"trial_type":"html-keyboard-response","trial_index":65,"time_elapsed":222950,"internal_node_id":"0.0-19.20-1.20"},{"rt":null,"stimulus":"<div style=\"background-color:#6dce98\"><h1 style=\"background-color:MediumSeaGreen\" >You won a prize! Well done!</h1><div style=\"background-color:#6dce98\"><h1 style=\"background-color:MediumSeaGreen\" >Only 6 left to go!</h1><img id=\"box\" src=\"img/prizes/ring.png\"></img><img id=\"box\" src=\"img/empty/blueopenbox.png\"></img></div>","key_press":null,"trial_type":"html-keyboard-response","trial_index":65,"time_elapsed":224452,"internal_node_id":"0.0-19.20-1.20"},{"rt":693.8350000127684,"stimulus":"<p>Choose a box,</p>","button_pressed":1,"trial_type":"html-button-response","trial_index":66,"time_elapsed":225148,"internal_node_id":"0.0-19.21-0.21"},{"rate":0.4641863203978912,"trial_type":"html-keyboard-response","trial_index":67,"time_elapsed":225148,"internal_node_id":"0.0-19.21-1.21"},{"rt":null,"stimulus":"<div style=\"background-color:#6dce98\"><h1 style=\"background-color:MediumSeaGreen\" >You won a prize! Well done!</h1><div style=\"background-color:#6dce98\"><h1 style=\"background-color:MediumSeaGreen\" >Only 5 left to go!</h1><img id=\"box\" src=\"img/prizes/ring.png\"></img><img id=\"box\" src=\"img/empty/greenopenbox.png\"></img></div>","key_press":null,"trial_type":"html-keyboard-response","trial_index":67,"time_elapsed":226651,"internal_node_id":"0.0-19.21-1.21"},{"rt":501.814999995986,"stimulus":"<p>Choose a box,</p>","button_pressed":1,"trial_type":"html-button-response","trial_index":68,"time_elapsed":227154,"internal_node_id":"0.0-19.22-0.22"},{"rate":0.4641863203978912,"trial_type":"html-keyboard-response","trial_index":69,"time_elapsed":227155,"internal_node_id":"0.0-19.22-1.22"},{"rt":null,"stimulus":"<div style=\"background-color:#6dce98\"><h1 style=\"background-color:MediumSeaGreen\" >You won a prize! Well done!</h1><div style=\"background-color:#6dce98\"><h1 style=\"background-color:MediumSeaGreen\" >Only 4 left to go!</h1><img id=\"box\" src=\"img/prizes/lolipop.png\"></img><img id=\"box\" src=\"img/empty/greenopenbox.png\"></img></div>","key_press":null,"trial_type":"html-keyboard-response","trial_index":69,"time_elapsed":228657,"internal_node_id":"0.0-19.22-1.22"},{"rt":511.8800000054762,"stimulus":"<p>Choose a box,</p>","button_pressed":1,"trial_type":"html-button-response","trial_index":70,"time_elapsed":229170,"internal_node_id":"0.0-19.23-0.23"},{"rate":0.4641863203978912,"trial_type":"html-keyboard-response","trial_index":71,"time_elapsed":229170,"internal_node_id":"0.0-19.23-1.23"},{"rt":null,"stimulus":"<div style=\"background-color:#6dce98\"><h1 style=\"background-color:MediumSeaGreen\" >You won a prize! Well done!</h1><div style=\"background-color:#6dce98\"><h1 style=\"background-color:MediumSeaGreen\" >Only 3 left to go!</h1><img id=\"box\" src=\"img/prizes/coins.png\"></img><img id=\"box\" src=\"img/empty/greenopenbox.png\"></img></div>","key_press":null,"trial_type":"html-keyboard-response","trial_index":71,"time_elapsed":230672,"internal_node_id":"0.0-19.23-1.23"},{"rt":634.8100000031991,"stimulus":"<p>Choose a box,</p>","button_pressed":0,"trial_type":"html-button-response","trial_index":72,"time_elapsed":231309,"internal_node_id":"0.0-19.24-0.24"},{"rate":0.770477840190862,"trial_type":"html-keyboard-response","trial_index":73,"time_elapsed":231310,"internal_node_id":"0.0-19.24-1.24"},{"rt":null,"stimulus":"<div style=\"background-color:#ff7157\"><h1 style=\"background-color:Tomato\">Bad luck! There was no prize in the box!</h1><h1 style=\"background-color:Tomato\">Remember, you need to keep going until you have 20 prizes!</h1><img id=\"box\" src=\"img/sad/blueopenboxsadthumb.png\"></img></div>","key_press":null,"trial_type":"html-keyboard-response","trial_index":73,"time_elapsed":232811,"internal_node_id":"0.0-19.24-1.24"},{"rt":543.309999993653,"stimulus":"<p>Choose a box,</p>","button_pressed":1,"trial_type":"html-button-response","trial_index":74,"time_elapsed":233356,"internal_node_id":"0.0-19.25-0.25"},{"rate":0.4641863203978912,"trial_type":"html-keyboard-response","trial_index":75,"time_elapsed":233356,"internal_node_id":"0.0-19.25-1.25"},{"rt":null,"stimulus":"<div style=\"background-color:#ff7157\"><h1 style=\"background-color:Tomato\">Bad luck! There was no prize in the box!</h1><h1 style=\"background-color:Tomato\">Remember, you need to keep going until you have 20 prizes!</h1><img id=\"box\" src=\"img/sad/greenopenboxsadthumb.png\"></img></div>","key_press":null,"trial_type":"html-keyboard-response","trial_index":75,"time_elapsed":234857,"internal_node_id":"0.0-19.25-1.25"},{"rt":748.249999989639,"stimulus":"<p>Choose a box,</p>","button_pressed":2,"trial_type":"html-button-response","trial_index":76,"time_elapsed":235606,"internal_node_id":"0.0-19.26-0.26"},{"rate":0.32054598403036294,"trial_type":"html-keyboard-response","trial_index":77,"time_elapsed":235607,"internal_node_id":"0.0-19.26-1.26"},{"rt":null,"stimulus":"<div style=\"background-color:#ff7157\"><h1 style=\"background-color:Tomato\">Bad luck! There was no prize in the box!</h1><h1 style=\"background-color:Tomato\">Remember, you need to keep going until you have 20 prizes!</h1><img id=\"box\" src=\"img/sad/purpleopenboxsadthumb.png\"></img></div>","key_press":null,"trial_type":"html-keyboard-response","trial_index":77,"time_elapsed":237108,"internal_node_id":"0.0-19.26-1.26"},{"rt":503.3549999934621,"stimulus":"<p>Choose a box,</p>","button_pressed":3,"trial_type":"html-button-response","trial_index":78,"time_elapsed":237612,"internal_node_id":"0.0-19.27-0.27"},{"rate":0.19616575025468147,"trial_type":"html-keyboard-response","trial_index":79,"time_elapsed":237612,"internal_node_id":"0.0-19.27-1.27"},{"rt":null,"stimulus":"<div style=\"background-color:#ff7157\"><h1 style=\"background-color:Tomato\">Bad luck! There was no prize in the box!</h1><h1 style=\"background-color:Tomato\">Remember, you need to keep going until you have 20 prizes!</h1><img id=\"box\" src=\"img/sad/redopenboxsadthumb.png\"></img></div>","key_press":null,"trial_type":"html-keyboard-response","trial_index":79,"time_elapsed":239114,"internal_node_id":"0.0-19.27-1.27"},{"rt":573.3949999994365,"stimulus":"<p>Choose a box,</p>","button_pressed":0,"trial_type":"html-button-response","trial_index":80,"time_elapsed":239690,"internal_node_id":"0.0-19.28-0.28"},{"rate":0.770477840190862,"trial_type":"html-keyboard-response","trial_index":81,"time_elapsed":239690,"internal_node_id":"0.0-19.28-1.28"},{"rt":null,"stimulus":"<div style=\"background-color:#ff7157\"><h1 style=\"background-color:Tomato\">Bad luck! There was no prize in the box!</h1><h1 style=\"background-color:Tomato\">Remember, you need to keep going until you have 20 prizes!</h1><img id=\"box\" src=\"img/sad/blueopenboxsadthumb.png\"></img></div>","key_press":null,"trial_type":"html-keyboard-response","trial_index":81,"time_elapsed":241192,"internal_node_id":"0.0-19.28-1.28"},{"rt":553.8500000111526,"stimulus":"<p>Choose a box,</p>","button_pressed":1,"trial_type":"html-button-response","trial_index":82,"time_elapsed":241746,"internal_node_id":"0.0-19.29-0.29"},{"rate":0.4641863203978912,"trial_type":"html-keyboard-response","trial_index":83,"time_elapsed":241746,"internal_node_id":"0.0-19.29-1.29"},{"rt":null,"stimulus":"<div style=\"background-color:#ff7157\"><h1 style=\"background-color:Tomato\">Bad luck! There was no prize in the box!</h1><h1 style=\"background-color:Tomato\">Remember, you need to keep going until you have 20 prizes!</h1><img id=\"box\" src=\"img/sad/greenopenboxsadthumb.png\"></img></div>","key_press":null,"trial_type":"html-keyboard-response","trial_index":83,"time_elapsed":243248,"internal_node_id":"0.0-19.29-1.29"},{"rt":493.01500000001397,"stimulus":"<p>Choose a box,</p>","button_pressed":0,"trial_type":"html-button-response","trial_index":84,"time_elapsed":243742,"internal_node_id":"0.0-19.30-0.30"},{"rate":0.770477840190862,"trial_type":"html-keyboard-response","trial_index":85,"time_elapsed":243742,"internal_node_id":"0.0-19.30-1.30"},{"rt":null,"stimulus":"<div style=\"background-color:#6dce98\"><h1 style=\"background-color:MediumSeaGreen\" >You won a prize! Well done!</h1><div style=\"background-color:#6dce98\"><h1 style=\"background-color:MediumSeaGreen\" >Only 2 left to go!</h1><img id=\"box\" src=\"img/prizes/beachball.png\"></img><img id=\"box\" src=\"img/empty/blueopenbox.png\"></img></div>","key_press":null,"trial_type":"html-keyboard-response","trial_index":85,"time_elapsed":245243,"internal_node_id":"0.0-19.30-1.30"},{"rt":503.4750000049826,"stimulus":"<p>Choose a box,</p>","button_pressed":0,"trial_type":"html-button-response","trial_index":86,"time_elapsed":245748,"internal_node_id":"0.0-19.31-0.31"},{"rate":0.770477840190862,"trial_type":"html-keyboard-response","trial_index":87,"time_elapsed":245748,"internal_node_id":"0.0-19.31-1.31"},{"rt":null,"stimulus":"<div style=\"background-color:#6dce98\"><h1 style=\"background-color:MediumSeaGreen\" >You won a prize! Well done!</h1><div style=\"background-color:#6dce98\"><h1 style=\"background-color:MediumSeaGreen\" >Only 1 left to go!</h1><img id=\"box\" src=\"img/prizes/ring.png\"></img><img id=\"box\" src=\"img/empty/blueopenbox.png\"></img></div>","key_press":null,"trial_type":"html-keyboard-response","trial_index":87,"time_elapsed":247249,"internal_node_id":"0.0-19.31-1.31"},{"rt":532.3449999996228,"stimulus":"<p>Choose a box,</p>","button_pressed":0,"trial_type":"html-button-response","trial_index":88,"time_elapsed":247784,"internal_node_id":"0.0-19.32-0.32"},{"rate":0.770477840190862,"trial_type":"html-keyboard-response","trial_index":89,"time_elapsed":247784,"internal_node_id":"0.0-19.32-1.32"},{"rt":null,"stimulus":"<div style=\"background-color:#6dce98\"><h1 style=\"background-color:MediumSeaGreen\" >You won a prize! Well done!</h1><div style=\"background-color:#6dce98\"><h1 style=\"background-color:MediumSeaGreen\" >Only 0 left to go!</h1><img id=\"box\" src=\"img/prizes/beachball.png\"></img><img id=\"box\" src=\"img/empty/blueopenbox.png\"></img></div>","key_press":null,"trial_type":"html-keyboard-response","trial_index":89,"time_elapsed":249286,"internal_node_id":"0.0-19.32-1.32"},{"rt":27162.134999991395,"responses":"{\"Q0\":\"It was a bit random\",\"Q1\":\"if one box had a present I chose the box again \"}","trial_type":"survey-text","trial_index":90,"time_elapsed":276462,"internal_node_id":"0.0-20.0"}]