[{"view_history":"[{\"page_index\":0,\"viewing_time\":19362.65500006266},{\"page_index\":1,\"viewing_time\":5084.555000066757},{\"page_index\":2,\"viewing_time\":16999.889999860898},{\"page_index\":3,\"viewing_time\":8799.750000005588},{\"page_index\":4,\"viewing_time\":3575.995000079274},{\"page_index\":5,\"viewing_time\":14287.795000011101}]","rt":68111.45500000566,"trial_type":"instructions","trial_index":0,"time_elapsed":68120,"internal_node_id":"0.0-0.0"},{"rt":4925.744999898598,"responses":"{\"Q0\":\"Yes\",\"Q1\":\"Yes\",\"Q2\":\"Yes\"}","question_order":"[0,1,2]","trial_type":"survey-multi-choice","trial_index":1,"time_elapsed":73048,"internal_node_id":"0.0-1.0-0.0"},{"rt":4843.240000074729,"responses":"{\"Q0\":\"Yes\",\"Q1\":\"Yes\",\"Q2\":\"Yes\"}","question_order":"[0,1,2]","trial_type":"survey-multi-choice","trial_index":2,"time_elapsed":77895,"internal_node_id":"0.0-2.0-0.0"},{"rt":2348.1950000859797,"responses":"{\"Q0\":\"5f623c673bbe9c101a5c2c8a\"}","trial_type":"survey-text","trial_index":3,"time_elapsed":80249,"internal_node_id":"0.0-3.0"},{"rt":3484.089999925345,"responses":"{\"Q0\":\"Female\",\"Q1\":\"25-34\"}","question_order":"[0,1]","trial_type":"survey-multi-choice","trial_index":4,"time_elapsed":83735,"internal_node_id":"0.0-4.0"},{"rt":7938.68500017561,"responses":"{\"Q0\":\"\"}","trial_type":"survey-text","trial_index":5,"time_elapsed":91678,"internal_node_id":"0.0-5.0"},{"view_history":"[{\"page_index\":0,\"viewing_time\":3782.935000024736}]","rt":3783.174999989569,"trial_type":"instructions","trial_index":6,"time_elapsed":95462,"internal_node_id":"0.0-6.0"},{"rt":16390.514999860898,"responses":"{\"Interested\":3,\"Distressed\":3,\"Excited\":3,\"Upset\":4}","question_order":"[0,1,2,3]","trial_type":"survey-likert","trial_index":7,"time_elapsed":111855,"internal_node_id":"0.0-7.0"},{"rt":11955.339999869466,"responses":"{\"Strong\":3,\"Guilty\":4,\"Scared\":3,\"Hostile\":0}","question_order":"[0,1,2,3]","trial_type":"survey-likert","trial_index":8,"time_elapsed":123815,"internal_node_id":"0.0-8.0"},{"rt":10219.644999830052,"responses":"{\"Enthusiastic\":3,\"Proud\":1,\"Irritable\":3,\"Alert\":4}","question_order":"[0,1,2,3]","trial_type":"survey-likert","trial_index":9,"time_elapsed":134039,"internal_node_id":"0.0-9.0"},{"rt":10252.289999974892,"responses":"{\"Ashamed\":1,\"Inspired\":3,\"Nervous\":4,\"Determined\":4}","question_order":"[0,1,2,3]","trial_type":"survey-likert","trial_index":10,"time_elapsed":144295,"internal_node_id":"0.0-10.0"},{"rt":12800.83500011824,"responses":"{\"Attentive\":3,\"Jittery\":4,\"Active\":3,\"Afraid\":1}","question_order":"[0,1,2,3]","trial_type":"survey-likert","trial_index":11,"time_elapsed":157102,"internal_node_id":"0.0-11.0"},{"rt":14346.84000001289,"responses":"{\"Q0\":2,\"Q1\":2,\"Q2\":3,\"Q3\":2}","question_order":"[0,1,2,3]","trial_type":"survey-likert","trial_index":12,"time_elapsed":171453,"internal_node_id":"0.0-12.0"},{"rt":17347.760000033304,"responses":"{\"Q0\":3,\"Q1\":3,\"Q2\":2,\"Q3\":3}","question_order":"[0,1,2,3]","trial_type":"survey-likert","trial_index":13,"time_elapsed":188805,"internal_node_id":"0.0-13.0"},{"rt":13667.87500004284,"responses":"{\"Q0\":3,\"Q1\":3,\"Q2\":3,\"Q3\":3}","question_order":"[0,1,2,3]","trial_type":"survey-likert","trial_index":14,"time_elapsed":202477,"internal_node_id":"0.0-14.0"},{"rt":11659.669999964535,"responses":"{\"Q0\":2,\"Q1\":1,\"Q2\":2}","question_order":"[0,1,2]","trial_type":"survey-likert","trial_index":15,"time_elapsed":214140,"internal_node_id":"0.0-15.0"},{"view_history":"[{\"page_index\":0,\"viewing_time\":1777.3199998773634},{\"page_index\":1,\"viewing_time\":4895.520000020042},{\"page_index\":2,\"viewing_time\":4488.1800001021475}]","rt":11161.270000040531,"trial_type":"instructions","trial_index":16,"time_elapsed":225307,"internal_node_id":"0.0-16.0"},{"rt":1326.4800000470132,"stimulus":"<p>Choose a box,</p>","button_pressed":1,"trial_type":"html-button-response","trial_index":17,"time_elapsed":226636,"internal_node_id":"0.0-17.0-0.0"},{"rate":0.6165888831237925,"trial_type":"html-keyboard-response","trial_index":18,"time_elapsed":226637,"internal_node_id":"0.0-17.0-1.0"},{"rt":null,"stimulus":"<div style=\"background-color:#6dce98\"><h1 style=\"background-color:MediumSeaGreen\" >You won a prize! Well done!</h1><div style=\"background-color:#6dce98\"><h1 style=\"background-color:MediumSeaGreen\" >Only 19 left to go!</h1><img id=\"box\" src=\"img/prizes/coins.png\"></img><img id=\"box\" src=\"img/empty/greenopenbox.png\"></img></div>","key_press":null,"trial_type":"html-keyboard-response","trial_index":18,"time_elapsed":228139,"internal_node_id":"0.0-17.0-1.0"},{"rt":1885.990000097081,"stimulus":"<p>Choose a box,</p>","button_pressed":1,"trial_type":"html-button-response","trial_index":19,"time_elapsed":230027,"internal_node_id":"0.0-17.0-0.1"},{"rate":0.6165888831237925,"trial_type":"html-keyboard-response","trial_index":20,"time_elapsed":230028,"internal_node_id":"0.0-17.0-1.1"},{"rt":null,"stimulus":"<div style=\"background-color:#6dce98\"><h1 style=\"background-color:MediumSeaGreen\" >You won a prize! Well done!</h1><div style=\"background-color:#6dce98\"><h1 style=\"background-color:MediumSeaGreen\" >Only 18 left to go!</h1><img id=\"box\" src=\"img/prizes/choc.png\"></img><img id=\"box\" src=\"img/empty/greenopenbox.png\"></img></div>","key_press":null,"trial_type":"html-keyboard-response","trial_index":20,"time_elapsed":231531,"internal_node_id":"0.0-17.0-1.1"},{"rt":629.9799999687821,"stimulus":"<p>Choose a box,</p>","button_pressed":1,"trial_type":"html-button-response","trial_index":21,"time_elapsed":232163,"internal_node_id":"0.0-17.0-0.2"},{"rate":0.6165888831237925,"trial_type":"html-keyboard-response","trial_index":22,"time_elapsed":232163,"internal_node_id":"0.0-17.0-1.2"},{"rt":null,"stimulus":"<div style=\"background-color:#ff7157\"><h1 style=\"background-color:Tomato\">Bad luck! There was no prize in the box!</h1><h1 style=\"background-color:Tomato\">Remember, you need to keep going until you have 20 prizes!</h1><img id=\"box\" src=\"img/sad/greenopenboxsadthumb.png\"></img></div>","key_press":null,"trial_type":"html-keyboard-response","trial_index":22,"time_elapsed":233666,"internal_node_id":"0.0-17.0-1.2"},{"view_history":"[{\"page_index\":0,\"viewing_time\":4127.699999837205}]","rt":4127.934999996796,"trial_type":"instructions","trial_index":23,"time_elapsed":237803,"internal_node_id":"0.0-18.0"},{"rt":742.3400001134723,"stimulus":"<p>Choose a box,</p>","button_pressed":1,"trial_type":"html-button-response","trial_index":24,"time_elapsed":238547,"internal_node_id":"0.0-19.0-0.0"},{"rate":0.3121807624677165,"trial_type":"html-keyboard-response","trial_index":25,"time_elapsed":238547,"internal_node_id":"0.0-19.0-1.0"},{"rt":null,"stimulus":"<div style=\"background-color:#ff7157\"><h1 style=\"background-color:Tomato\">Bad luck! There was no prize in the box!</h1><h1 style=\"background-color:Tomato\">Remember, you need to keep going until you have 20 prizes!</h1><img id=\"box\" src=\"img/sad/greenopenboxsadthumb.png\"></img></div>","key_press":null,"trial_type":"html-keyboard-response","trial_index":25,"time_elapsed":240049,"internal_node_id":"0.0-19.0-1.0"},{"rt":760.1100001484156,"stimulus":"<p>Choose a box,</p>","button_pressed":1,"trial_type":"html-button-response","trial_index":26,"time_elapsed":240811,"internal_node_id":"0.0-19.1-0.1"},{"rate":0.3121807624677165,"trial_type":"html-keyboard-response","trial_index":27,"time_elapsed":240811,"internal_node_id":"0.0-19.1-1.1"},{"rt":null,"stimulus":"<div style=\"background-color:#ff7157\"><h1 style=\"background-color:Tomato\">Bad luck! There was no prize in the box!</h1><h1 style=\"background-color:Tomato\">Remember, you need to keep going until you have 20 prizes!</h1><img id=\"box\" src=\"img/sad/greenopenboxsadthumb.png\"></img></div>","key_press":null,"trial_type":"html-keyboard-response","trial_index":27,"time_elapsed":242313,"internal_node_id":"0.0-19.1-1.1"},{"rt":503.91500000841916,"stimulus":"<p>Choose a box,</p>","button_pressed":3,"trial_type":"html-button-response","trial_index":28,"time_elapsed":242819,"internal_node_id":"0.0-19.2-0.2"},{"rate":0.19226845893817118,"trial_type":"html-keyboard-response","trial_index":29,"time_elapsed":242819,"internal_node_id":"0.0-19.2-1.2"},{"rt":null,"stimulus":"<div style=\"background-color:#6dce98\"><h1 style=\"background-color:MediumSeaGreen\" >You won a prize! Well done!</h1><div style=\"background-color:#6dce98\"><h1 style=\"background-color:MediumSeaGreen\" >Only 19 left to go!</h1><img id=\"box\" src=\"img/prizes/lolipop.png\"></img><img id=\"box\" src=\"img/empty/redopenbox.png\"></img></div>","key_press":null,"trial_type":"html-keyboard-response","trial_index":29,"time_elapsed":244321,"internal_node_id":"0.0-19.2-1.2"},{"rt":783.9200000744313,"stimulus":"<p>Choose a box,</p>","button_pressed":0,"trial_type":"html-button-response","trial_index":30,"time_elapsed":245107,"internal_node_id":"0.0-19.3-0.3"},{"rate":0.8930161337611425,"trial_type":"html-keyboard-response","trial_index":31,"time_elapsed":245107,"internal_node_id":"0.0-19.3-1.3"},{"rt":null,"stimulus":"<div style=\"background-color:#6dce98\"><h1 style=\"background-color:MediumSeaGreen\" >You won a prize! Well done!</h1><div style=\"background-color:#6dce98\"><h1 style=\"background-color:MediumSeaGreen\" >Only 18 left to go!</h1><img id=\"box\" src=\"img/prizes/beachball.png\"></img><img id=\"box\" src=\"img/empty/blueopenbox.png\"></img></div>","key_press":null,"trial_type":"html-keyboard-response","trial_index":31,"time_elapsed":246609,"internal_node_id":"0.0-19.3-1.3"},{"rt":424.1600001696497,"stimulus":"<p>Choose a box,</p>","button_pressed":2,"trial_type":"html-button-response","trial_index":32,"time_elapsed":247035,"internal_node_id":"0.0-19.4-0.4"},{"rate":0.5440981693620299,"trial_type":"html-keyboard-response","trial_index":33,"time_elapsed":247035,"internal_node_id":"0.0-19.4-1.4"},{"rt":null,"stimulus":"<div style=\"background-color:#6dce98\"><h1 style=\"background-color:MediumSeaGreen\" >You won a prize! Well done!</h1><div style=\"background-color:#6dce98\"><h1 style=\"background-color:MediumSeaGreen\" >Only 17 left to go!</h1><img id=\"box\" src=\"img/prizes/yoyo.png\"></img><img id=\"box\" src=\"img/empty/purpleopenbox.png\"></img></div>","key_press":null,"trial_type":"html-keyboard-response","trial_index":33,"time_elapsed":248537,"internal_node_id":"0.0-19.4-1.4"},{"rt":431.97999987751245,"stimulus":"<p>Choose a box,</p>","button_pressed":1,"trial_type":"html-button-response","trial_index":34,"time_elapsed":248971,"internal_node_id":"0.0-19.5-0.5"},{"rate":0.3121807624677165,"trial_type":"html-keyboard-response","trial_index":35,"time_elapsed":248971,"internal_node_id":"0.0-19.5-1.5"},{"rt":null,"stimulus":"<div style=\"background-color:#6dce98\"><h1 style=\"background-color:MediumSeaGreen\" >You won a prize! Well done!</h1><div style=\"background-color:#6dce98\"><h1 style=\"background-color:MediumSeaGreen\" >Only 16 left to go!</h1><img id=\"box\" src=\"img/prizes/yoyo.png\"></img><img id=\"box\" src=\"img/empty/greenopenbox.png\"></img></div>","key_press":null,"trial_type":"html-keyboard-response","trial_index":35,"time_elapsed":250473,"internal_node_id":"0.0-19.5-1.5"},{"rt":400.01500002108514,"stimulus":"<p>Choose a box,</p>","button_pressed":3,"trial_type":"html-button-response","trial_index":36,"time_elapsed":250875,"internal_node_id":"0.0-19.6-0.6"},{"rate":0.19226845893817118,"trial_type":"html-keyboard-response","trial_index":37,"time_elapsed":250875,"internal_node_id":"0.0-19.6-1.6"},{"rt":null,"stimulus":"<div style=\"background-color:#6dce98\"><h1 style=\"background-color:MediumSeaGreen\" >You won a prize! Well done!</h1><div style=\"background-color:#6dce98\"><h1 style=\"background-color:MediumSeaGreen\" >Only 15 left to go!</h1><img id=\"box\" src=\"img/prizes/lolipop.png\"></img><img id=\"box\" src=\"img/empty/redopenbox.png\"></img></div>","key_press":null,"trial_type":"html-keyboard-response","trial_index":37,"time_elapsed":252377,"internal_node_id":"0.0-19.6-1.6"},{"rt":376.1650000233203,"stimulus":"<p>Choose a box,</p>","button_pressed":0,"trial_type":"html-button-response","trial_index":38,"time_elapsed":252754,"internal_node_id":"0.0-19.7-0.7"},{"rate":0.8930161337611425,"trial_type":"html-keyboard-response","trial_index":39,"time_elapsed":252755,"internal_node_id":"0.0-19.7-1.7"},{"rt":null,"stimulus":"<div style=\"background-color:#6dce98\"><h1 style=\"background-color:MediumSeaGreen\" >You won a prize! Well done!</h1><div style=\"background-color:#6dce98\"><h1 style=\"background-color:MediumSeaGreen\" >Only 14 left to go!</h1><img id=\"box\" src=\"img/prizes/flowers.png\"></img><img id=\"box\" src=\"img/empty/blueopenbox.png\"></img></div>","key_press":null,"trial_type":"html-keyboard-response","trial_index":39,"time_elapsed":254256,"internal_node_id":"0.0-19.7-1.7"},{"rt":376.2499999720603,"stimulus":"<p>Choose a box,</p>","button_pressed":2,"trial_type":"html-button-response","trial_index":40,"time_elapsed":254634,"internal_node_id":"0.0-19.8-0.8"},{"rate":0.5440981693620299,"trial_type":"html-keyboard-response","trial_index":41,"time_elapsed":254635,"internal_node_id":"0.0-19.8-1.8"},{"rt":null,"stimulus":"<div style=\"background-color:#6dce98\"><h1 style=\"background-color:MediumSeaGreen\" >You won a prize! Well done!</h1><div style=\"background-color:#6dce98\"><h1 style=\"background-color:MediumSeaGreen\" >Only 13 left to go!</h1><img id=\"box\" src=\"img/prizes/yoyo.png\"></img><img id=\"box\" src=\"img/empty/purpleopenbox.png\"></img></div>","key_press":null,"trial_type":"html-keyboard-response","trial_index":41,"time_elapsed":256137,"internal_node_id":"0.0-19.8-1.8"},{"rt":431.89499992877245,"stimulus":"<p>Choose a box,</p>","button_pressed":1,"trial_type":"html-button-response","trial_index":42,"time_elapsed":256570,"internal_node_id":"0.0-19.9-0.9"},{"rate":0.3121807624677165,"trial_type":"html-keyboard-response","trial_index":43,"time_elapsed":256571,"internal_node_id":"0.0-19.9-1.9"},{"rt":null,"stimulus":"<div style=\"background-color:#ff7157\"><h1 style=\"background-color:Tomato\">Bad luck! There was no prize in the box!</h1><h1 style=\"background-color:Tomato\">Remember, you need to keep going until you have 20 prizes!</h1><img id=\"box\" src=\"img/sad/greenopenboxsadthumb.png\"></img></div>","key_press":null,"trial_type":"html-keyboard-response","trial_index":43,"time_elapsed":258073,"internal_node_id":"0.0-19.9-1.9"},{"rt":376.1950000189245,"stimulus":"<p>Choose a box,</p>","button_pressed":3,"trial_type":"html-button-response","trial_index":44,"time_elapsed":258450,"internal_node_id":"0.0-19.10-0.10"},{"rate":0.19226845893817118,"trial_type":"html-keyboard-response","trial_index":45,"time_elapsed":258451,"internal_node_id":"0.0-19.10-1.10"},{"rt":null,"stimulus":"<div style=\"background-color:#6dce98\"><h1 style=\"background-color:MediumSeaGreen\" >You won a prize! Well done!</h1><div style=\"background-color:#6dce98\"><h1 style=\"background-color:MediumSeaGreen\" >Only 12 left to go!</h1><img id=\"box\" src=\"img/prizes/duck.png\"></img><img id=\"box\" src=\"img/empty/redopenbox.png\"></img></div>","key_press":null,"trial_type":"html-keyboard-response","trial_index":45,"time_elapsed":259953,"internal_node_id":"0.0-19.10-1.10"},{"rt":392.6050001755357,"stimulus":"<p>Choose a box,</p>","button_pressed":0,"trial_type":"html-button-response","trial_index":46,"time_elapsed":260347,"internal_node_id":"0.0-19.11-0.11"},{"rate":0.8930161337611425,"trial_type":"html-keyboard-response","trial_index":47,"time_elapsed":260347,"internal_node_id":"0.0-19.11-1.11"},{"rt":null,"stimulus":"<div style=\"background-color:#6dce98\"><h1 style=\"background-color:MediumSeaGreen\" >You won a prize! Well done!</h1><div style=\"background-color:#6dce98\"><h1 style=\"background-color:MediumSeaGreen\" >Only 11 left to go!</h1><img id=\"box\" src=\"img/prizes/lolipop.png\"></img><img id=\"box\" src=\"img/empty/blueopenbox.png\"></img></div>","key_press":null,"trial_type":"html-keyboard-response","trial_index":47,"time_elapsed":261848,"internal_node_id":"0.0-19.11-1.11"},{"rt":375.93499990180135,"stimulus":"<p>Choose a box,</p>","button_pressed":2,"trial_type":"html-button-response","trial_index":48,"time_elapsed":262226,"internal_node_id":"0.0-19.12-0.12"},{"rate":0.5440981693620299,"trial_type":"html-keyboard-response","trial_index":49,"time_elapsed":262226,"internal_node_id":"0.0-19.12-1.12"},{"rt":null,"stimulus":"<div style=\"background-color:#6dce98\"><h1 style=\"background-color:MediumSeaGreen\" >You won a prize! Well done!</h1><div style=\"background-color:#6dce98\"><h1 style=\"background-color:MediumSeaGreen\" >Only 10 left to go!</h1><img id=\"box\" src=\"img/prizes/ring.png\"></img><img id=\"box\" src=\"img/empty/purpleopenbox.png\"></img></div>","key_press":null,"trial_type":"html-keyboard-response","trial_index":49,"time_elapsed":263728,"internal_node_id":"0.0-19.12-1.12"},{"rt":344.3149998784065,"stimulus":"<p>Choose a box,</p>","button_pressed":1,"trial_type":"html-button-response","trial_index":50,"time_elapsed":264074,"internal_node_id":"0.0-19.13-0.13"},{"rate":0.3121807624677165,"trial_type":"html-keyboard-response","trial_index":51,"time_elapsed":264075,"internal_node_id":"0.0-19.13-1.13"},{"rt":null,"stimulus":"<div style=\"background-color:#6dce98\"><h1 style=\"background-color:MediumSeaGreen\" >You won a prize! Well done!</h1><div style=\"background-color:#6dce98\"><h1 style=\"background-color:MediumSeaGreen\" >Only 9 left to go!</h1><img id=\"box\" src=\"img/prizes/choc.png\"></img><img id=\"box\" src=\"img/empty/greenopenbox.png\"></img></div>","key_press":null,"trial_type":"html-keyboard-response","trial_index":51,"time_elapsed":265577,"internal_node_id":"0.0-19.13-1.13"},{"rt":335.53000004030764,"stimulus":"<p>Choose a box,</p>","button_pressed":3,"trial_type":"html-button-response","trial_index":52,"time_elapsed":265914,"internal_node_id":"0.0-19.14-0.14"},{"rate":0.19226845893817118,"trial_type":"html-keyboard-response","trial_index":53,"time_elapsed":265914,"internal_node_id":"0.0-19.14-1.14"},{"rt":null,"stimulus":"<div style=\"background-color:#ff7157\"><h1 style=\"background-color:Tomato\">Bad luck! There was no prize in the box!</h1><h1 style=\"background-color:Tomato\">Remember, you need to keep going until you have 20 prizes!</h1><img id=\"box\" src=\"img/sad/redopenboxsadthumb.png\"></img></div>","key_press":null,"trial_type":"html-keyboard-response","trial_index":53,"time_elapsed":267416,"internal_node_id":"0.0-19.14-1.14"},{"rt":400.20000003278255,"stimulus":"<p>Choose a box,</p>","button_pressed":0,"trial_type":"html-button-response","trial_index":54,"time_elapsed":267818,"internal_node_id":"0.0-19.15-0.15"},{"rate":0.8930161337611425,"trial_type":"html-keyboard-response","trial_index":55,"time_elapsed":267818,"internal_node_id":"0.0-19.15-1.15"},{"rt":null,"stimulus":"<div style=\"background-color:#6dce98\"><h1 style=\"background-color:MediumSeaGreen\" >You won a prize! Well done!</h1><div style=\"background-color:#6dce98\"><h1 style=\"background-color:MediumSeaGreen\" >Only 8 left to go!</h1><img id=\"box\" src=\"img/prizes/bear.png\"></img><img id=\"box\" src=\"img/empty/blueopenbox.png\"></img></div>","key_press":null,"trial_type":"html-keyboard-response","trial_index":55,"time_elapsed":269321,"internal_node_id":"0.0-19.15-1.15"},{"rt":415.3699998278171,"stimulus":"<p>Choose a box,</p>","button_pressed":2,"trial_type":"html-button-response","trial_index":56,"time_elapsed":269738,"internal_node_id":"0.0-19.16-0.16"},{"rate":0.5440981693620299,"trial_type":"html-keyboard-response","trial_index":57,"time_elapsed":269738,"internal_node_id":"0.0-19.16-1.16"},{"rt":null,"stimulus":"<div style=\"background-color:#6dce98\"><h1 style=\"background-color:MediumSeaGreen\" >You won a prize! Well done!</h1><div style=\"background-color:#6dce98\"><h1 style=\"background-color:MediumSeaGreen\" >Only 7 left to go!</h1><img id=\"box\" src=\"img/prizes/bear.png\"></img><img id=\"box\" src=\"img/empty/purpleopenbox.png\"></img></div>","key_press":null,"trial_type":"html-keyboard-response","trial_index":57,"time_elapsed":271241,"internal_node_id":"0.0-19.16-1.16"},{"rt":440.0299999397248,"stimulus":"<p>Choose a box,</p>","button_pressed":1,"trial_type":"html-button-response","trial_index":58,"time_elapsed":271683,"internal_node_id":"0.0-19.17-0.17"},{"rate":0.3121807624677165,"trial_type":"html-keyboard-response","trial_index":59,"time_elapsed":271683,"internal_node_id":"0.0-19.17-1.17"},{"rt":null,"stimulus":"<div style=\"background-color:#ff7157\"><h1 style=\"background-color:Tomato\">Bad luck! There was no prize in the box!</h1><h1 style=\"background-color:Tomato\">Remember, you need to keep going until you have 20 prizes!</h1><img id=\"box\" src=\"img/sad/greenopenboxsadthumb.png\"></img></div>","key_press":null,"trial_type":"html-keyboard-response","trial_index":59,"time_elapsed":273186,"internal_node_id":"0.0-19.17-1.17"},{"rt":391.30500005558133,"stimulus":"<p>Choose a box,</p>","button_pressed":3,"trial_type":"html-button-response","trial_index":60,"time_elapsed":273579,"internal_node_id":"0.0-19.18-0.18"},{"rate":0.19226845893817118,"trial_type":"html-keyboard-response","trial_index":61,"time_elapsed":273579,"internal_node_id":"0.0-19.18-1.18"},{"rt":null,"stimulus":"<div style=\"background-color:#ff7157\"><h1 style=\"background-color:Tomato\">Bad luck! There was no prize in the box!</h1><h1 style=\"background-color:Tomato\">Remember, you need to keep going until you have 20 prizes!</h1><img id=\"box\" src=\"img/sad/redopenboxsadthumb.png\"></img></div>","key_press":null,"trial_type":"html-keyboard-response","trial_index":61,"time_elapsed":275081,"internal_node_id":"0.0-19.18-1.18"},{"rt":431.1699999962002,"stimulus":"<p>Choose a box,</p>","button_pressed":0,"trial_type":"html-button-response","trial_index":62,"time_elapsed":275515,"internal_node_id":"0.0-19.19-0.19"},{"rate":0.8930161337611425,"trial_type":"html-keyboard-response","trial_index":63,"time_elapsed":275515,"internal_node_id":"0.0-19.19-1.19"},{"rt":null,"stimulus":"<div style=\"background-color:#6dce98\"><h1 style=\"background-color:MediumSeaGreen\" >You won a prize! Well done!</h1><div style=\"background-color:#6dce98\"><h1 style=\"background-color:MediumSeaGreen\" >Only 6 left to go!</h1><img id=\"box\" src=\"img/prizes/lolipop.png\"></img><img id=\"box\" src=\"img/empty/blueopenbox.png\"></img></div>","key_press":null,"trial_type":"html-keyboard-response","trial_index":63,"time_elapsed":277017,"internal_node_id":"0.0-19.19-1.19"},{"rt":319.58500016480684,"stimulus":"<p>Choose a box,</p>","button_pressed":2,"trial_type":"html-button-response","trial_index":64,"time_elapsed":277339,"internal_node_id":"0.0-19.20-0.20"},{"rate":0.5440981693620299,"trial_type":"html-keyboard-response","trial_index":65,"time_elapsed":277339,"internal_node_id":"0.0-19.20-1.20"},{"rt":null,"stimulus":"<div style=\"background-color:#ff7157\"><h1 style=\"background-color:Tomato\">Bad luck! There was no prize in the box!</h1><h1 style=\"background-color:Tomato\">Remember, you need to keep going until you have 20 prizes!</h1><img id=\"box\" src=\"img/sad/purpleopenboxsadthumb.png\"></img></div>","key_press":null,"trial_type":"html-keyboard-response","trial_index":65,"time_elapsed":278840,"internal_node_id":"0.0-19.20-1.20"},{"rt":392.4049998167902,"stimulus":"<p>Choose a box,</p>","button_pressed":1,"trial_type":"html-button-response","trial_index":66,"time_elapsed":279235,"internal_node_id":"0.0-19.21-0.21"},{"rate":0.3121807624677165,"trial_type":"html-keyboard-response","trial_index":67,"time_elapsed":279235,"internal_node_id":"0.0-19.21-1.21"},{"rt":null,"stimulus":"<div style=\"background-color:#ff7157\"><h1 style=\"background-color:Tomato\">Bad luck! There was no prize in the box!</h1><h1 style=\"background-color:Tomato\">Remember, you need to keep going until you have 20 prizes!</h1><img id=\"box\" src=\"img/sad/greenopenboxsadthumb.png\"></img></div>","key_press":null,"trial_type":"html-keyboard-response","trial_index":67,"time_elapsed":280738,"internal_node_id":"0.0-19.21-1.21"},{"rt":367.00500012375414,"stimulus":"<p>Choose a box,</p>","button_pressed":3,"trial_type":"html-button-response","trial_index":68,"time_elapsed":281107,"internal_node_id":"0.0-19.22-0.22"},{"rate":0.19226845893817118,"trial_type":"html-keyboard-response","trial_index":69,"time_elapsed":281107,"internal_node_id":"0.0-19.22-1.22"},{"rt":null,"stimulus":"<div style=\"background-color:#ff7157\"><h1 style=\"background-color:Tomato\">Bad luck! There was no prize in the box!</h1><h1 style=\"background-color:Tomato\">Remember, you need to keep going until you have 20 prizes!</h1><img id=\"box\" src=\"img/sad/redopenboxsadthumb.png\"></img></div>","key_press":null,"trial_type":"html-keyboard-response","trial_index":69,"time_elapsed":282608,"internal_node_id":"0.0-19.22-1.22"},{"rt":536.3499999511987,"stimulus":"<p>Choose a box,</p>","button_pressed":0,"trial_type":"html-button-response","trial_index":70,"time_elapsed":283146,"internal_node_id":"0.0-19.23-0.23"},{"rate":0.8930161337611425,"trial_type":"html-keyboard-response","trial_index":71,"time_elapsed":283147,"internal_node_id":"0.0-19.23-1.23"},{"rt":null,"stimulus":"<div style=\"background-color:#6dce98\"><h1 style=\"background-color:MediumSeaGreen\" >You won a prize! Well done!</h1><div style=\"background-color:#6dce98\"><h1 style=\"background-color:MediumSeaGreen\" >Only 5 left to go!</h1><img id=\"box\" src=\"img/prizes/ring.png\"></img><img id=\"box\" src=\"img/empty/blueopenbox.png\"></img></div>","key_press":null,"trial_type":"html-keyboard-response","trial_index":71,"time_elapsed":284648,"internal_node_id":"0.0-19.23-1.23"},{"rt":336.80000016465783,"stimulus":"<p>Choose a box,</p>","button_pressed":2,"trial_type":"html-button-response","trial_index":72,"time_elapsed":284987,"internal_node_id":"0.0-19.24-0.24"},{"rate":0.5440981693620299,"trial_type":"html-keyboard-response","trial_index":73,"time_elapsed":284987,"internal_node_id":"0.0-19.24-1.24"},{"rt":null,"stimulus":"<div style=\"background-color:#6dce98\"><h1 style=\"background-color:MediumSeaGreen\" >You won a prize! Well done!</h1><div style=\"background-color:#6dce98\"><h1 style=\"background-color:MediumSeaGreen\" >Only 4 left to go!</h1><img id=\"box\" src=\"img/prizes/lolipop.png\"></img><img id=\"box\" src=\"img/empty/purpleopenbox.png\"></img></div>","key_press":null,"trial_type":"html-keyboard-response","trial_index":73,"time_elapsed":286489,"internal_node_id":"0.0-19.24-1.24"},{"rt":720.119999954477,"stimulus":"<p>Choose a box,</p>","button_pressed":1,"trial_type":"html-button-response","trial_index":74,"time_elapsed":287210,"internal_node_id":"0.0-19.25-0.25"},{"rate":0.3121807624677165,"trial_type":"html-keyboard-response","trial_index":75,"time_elapsed":287211,"internal_node_id":"0.0-19.25-1.25"},{"rt":null,"stimulus":"<div style=\"background-color:#6dce98\"><h1 style=\"background-color:MediumSeaGreen\" >You won a prize! Well done!</h1><div style=\"background-color:#6dce98\"><h1 style=\"background-color:MediumSeaGreen\" >Only 3 left to go!</h1><img id=\"box\" src=\"img/prizes/lolipop.png\"></img><img id=\"box\" src=\"img/empty/greenopenbox.png\"></img></div>","key_press":null,"trial_type":"html-keyboard-response","trial_index":75,"time_elapsed":288712,"internal_node_id":"0.0-19.25-1.25"},{"rt":384.65500017628074,"stimulus":"<p>Choose a box,</p>","button_pressed":3,"trial_type":"html-button-response","trial_index":76,"time_elapsed":289098,"internal_node_id":"0.0-19.26-0.26"},{"rate":0.19226845893817118,"trial_type":"html-keyboard-response","trial_index":77,"time_elapsed":289098,"internal_node_id":"0.0-19.26-1.26"},{"rt":null,"stimulus":"<div style=\"background-color:#ff7157\"><h1 style=\"background-color:Tomato\">Bad luck! There was no prize in the box!</h1><h1 style=\"background-color:Tomato\">Remember, you need to keep going until you have 20 prizes!</h1><img id=\"box\" src=\"img/sad/redopenboxsadthumb.png\"></img></div>","key_press":null,"trial_type":"html-keyboard-response","trial_index":77,"time_elapsed":290601,"internal_node_id":"0.0-19.26-1.26"},{"rt":320.30000002123415,"stimulus":"<p>Choose a box,</p>","button_pressed":3,"trial_type":"html-button-response","trial_index":78,"time_elapsed":290923,"internal_node_id":"0.0-19.27-0.27"},{"rate":0.19226845893817118,"trial_type":"html-keyboard-response","trial_index":79,"time_elapsed":290923,"internal_node_id":"0.0-19.27-1.27"},{"rt":null,"stimulus":"<div style=\"background-color:#6dce98\"><h1 style=\"background-color:MediumSeaGreen\" >You won a prize! Well done!</h1><div style=\"background-color:#6dce98\"><h1 style=\"background-color:MediumSeaGreen\" >Only 2 left to go!</h1><img id=\"box\" src=\"img/prizes/choc.png\"></img><img id=\"box\" src=\"img/empty/redopenbox.png\"></img></div>","key_press":null,"trial_type":"html-keyboard-response","trial_index":79,"time_elapsed":292425,"internal_node_id":"0.0-19.27-1.27"},{"rt":320.13999996706843,"stimulus":"<p>Choose a box,</p>","button_pressed":1,"trial_type":"html-button-response","trial_index":80,"time_elapsed":292746,"internal_node_id":"0.0-19.28-0.28"},{"rate":0.3121807624677165,"trial_type":"html-keyboard-response","trial_index":81,"time_elapsed":292747,"internal_node_id":"0.0-19.28-1.28"},{"rt":null,"stimulus":"<div style=\"background-color:#6dce98\"><h1 style=\"background-color:MediumSeaGreen\" >You won a prize! Well done!</h1><div style=\"background-color:#6dce98\"><h1 style=\"background-color:MediumSeaGreen\" >Only 1 left to go!</h1><img id=\"box\" src=\"img/prizes/bear.png\"></img><img id=\"box\" src=\"img/empty/greenopenbox.png\"></img></div>","key_press":null,"trial_type":"html-keyboard-response","trial_index":81,"time_elapsed":294248,"internal_node_id":"0.0-19.28-1.28"},{"rt":680.265000090003,"stimulus":"<p>Choose a box,</p>","button_pressed":3,"trial_type":"html-button-response","trial_index":82,"time_elapsed":294930,"internal_node_id":"0.0-19.29-0.29"},{"rate":0.19226845893817118,"trial_type":"html-keyboard-response","trial_index":83,"time_elapsed":294931,"internal_node_id":"0.0-19.29-1.29"},{"rt":null,"stimulus":"<div style=\"background-color:#ff7157\"><h1 style=\"background-color:Tomato\">Bad luck! There was no prize in the box!</h1><h1 style=\"background-color:Tomato\">Remember, you need to keep going until you have 20 prizes!</h1><img id=\"box\" src=\"img/sad/redopenboxsadthumb.png\"></img></div>","key_press":null,"trial_type":"html-keyboard-response","trial_index":83,"time_elapsed":296433,"internal_node_id":"0.0-19.29-1.29"},{"rt":408.1050001550466,"stimulus":"<p>Choose a box,</p>","button_pressed":1,"trial_type":"html-button-response","trial_index":84,"time_elapsed":296842,"internal_node_id":"0.0-19.30-0.30"},{"rate":0.3121807624677165,"trial_type":"html-keyboard-response","trial_index":85,"time_elapsed":296842,"internal_node_id":"0.0-19.30-1.30"},{"rt":null,"stimulus":"<div style=\"background-color:#ff7157\"><h1 style=\"background-color:Tomato\">Bad luck! There was no prize in the box!</h1><h1 style=\"background-color:Tomato\">Remember, you need to keep going until you have 20 prizes!</h1><img id=\"box\" src=\"img/sad/greenopenboxsadthumb.png\"></img></div>","key_press":null,"trial_type":"html-keyboard-response","trial_index":85,"time_elapsed":298344,"internal_node_id":"0.0-19.30-1.30"},{"rt":248.4349999576807,"stimulus":"<p>Choose a box,</p>","button_pressed":1,"trial_type":"html-button-response","trial_index":86,"time_elapsed":298594,"internal_node_id":"0.0-19.31-0.31"},{"rate":0.3121807624677165,"trial_type":"html-keyboard-response","trial_index":87,"time_elapsed":298594,"internal_node_id":"0.0-19.31-1.31"},{"rt":null,"stimulus":"<div style=\"background-color:#ff7157\"><h1 style=\"background-color:Tomato\">Bad luck! There was no prize in the box!</h1><h1 style=\"background-color:Tomato\">Remember, you need to keep going until you have 20 prizes!</h1><img id=\"box\" src=\"img/sad/greenopenboxsadthumb.png\"></img></div>","key_press":null,"trial_type":"html-keyboard-response","trial_index":87,"time_elapsed":300098,"internal_node_id":"0.0-19.31-1.31"},{"rt":367.1600001398474,"stimulus":"<p>Choose a box,</p>","button_pressed":1,"trial_type":"html-button-response","trial_index":88,"time_elapsed":300466,"internal_node_id":"0.0-19.32-0.32"},{"rate":0.3121807624677165,"trial_type":"html-keyboard-response","trial_index":89,"time_elapsed":300466,"internal_node_id":"0.0-19.32-1.32"},{"rt":null,"stimulus":"<div style=\"background-color:#ff7157\"><h1 style=\"background-color:Tomato\">Bad luck! There was no prize in the box!</h1><h1 style=\"background-color:Tomato\">Remember, you need to keep going until you have 20 prizes!</h1><img id=\"box\" src=\"img/sad/greenopenboxsadthumb.png\"></img></div>","key_press":null,"trial_type":"html-keyboard-response","trial_index":89,"time_elapsed":301968,"internal_node_id":"0.0-19.32-1.32"},{"rt":368.1299998424947,"stimulus":"<p>Choose a box,</p>","button_pressed":3,"trial_type":"html-button-response","trial_index":90,"time_elapsed":302338,"internal_node_id":"0.0-19.33-0.33"},{"rate":0.19226845893817118,"trial_type":"html-keyboard-response","trial_index":91,"time_elapsed":302338,"internal_node_id":"0.0-19.33-1.33"},{"rt":null,"stimulus":"<div style=\"background-color:#ff7157\"><h1 style=\"background-color:Tomato\">Bad luck! There was no prize in the box!</h1><h1 style=\"background-color:Tomato\">Remember, you need to keep going until you have 20 prizes!</h1><img id=\"box\" src=\"img/sad/redopenboxsadthumb.png\"></img></div>","key_press":null,"trial_type":"html-keyboard-response","trial_index":91,"time_elapsed":303840,"internal_node_id":"0.0-19.33-1.33"},{"rt":416.1149999126792,"stimulus":"<p>Choose a box,</p>","button_pressed":1,"trial_type":"html-button-response","trial_index":92,"time_elapsed":304258,"internal_node_id":"0.0-19.34-0.34"},{"rate":0.3121807624677165,"trial_type":"html-keyboard-response","trial_index":93,"time_elapsed":304258,"internal_node_id":"0.0-19.34-1.34"},{"rt":null,"stimulus":"<div style=\"background-color:#ff7157\"><h1 style=\"background-color:Tomato\">Bad luck! There was no prize in the box!</h1><h1 style=\"background-color:Tomato\">Remember, you need to keep going until you have 20 prizes!</h1><img id=\"box\" src=\"img/sad/greenopenboxsadthumb.png\"></img></div>","key_press":null,"trial_type":"html-keyboard-response","trial_index":93,"time_elapsed":305760,"internal_node_id":"0.0-19.34-1.34"},{"rt":328.8149998988956,"stimulus":"<p>Choose a box,</p>","button_pressed":3,"trial_type":"html-button-response","trial_index":94,"time_elapsed":306090,"internal_node_id":"0.0-19.35-0.35"},{"rate":0.19226845893817118,"trial_type":"html-keyboard-response","trial_index":95,"time_elapsed":306090,"internal_node_id":"0.0-19.35-1.35"},{"rt":null,"stimulus":"<div style=\"background-color:#ff7157\"><h1 style=\"background-color:Tomato\">Bad luck! There was no prize in the box!</h1><h1 style=\"background-color:Tomato\">Remember, you need to keep going until you have 20 prizes!</h1><img id=\"box\" src=\"img/sad/redopenboxsadthumb.png\"></img></div>","key_press":null,"trial_type":"html-keyboard-response","trial_index":95,"time_elapsed":307593,"internal_node_id":"0.0-19.35-1.35"},{"rt":647.6700000930578,"stimulus":"<p>Choose a box,</p>","button_pressed":1,"trial_type":"html-button-response","trial_index":96,"time_elapsed":308242,"internal_node_id":"0.0-19.36-0.36"},{"rate":0.3121807624677165,"trial_type":"html-keyboard-response","trial_index":97,"time_elapsed":308242,"internal_node_id":"0.0-19.36-1.36"},{"rt":null,"stimulus":"<div style=\"background-color:#ff7157\"><h1 style=\"background-color:Tomato\">Bad luck! There was no prize in the box!</h1><h1 style=\"background-color:Tomato\">Remember, you need to keep going until you have 20 prizes!</h1><img id=\"box\" src=\"img/sad/greenopenboxsadthumb.png\"></img></div>","key_press":null,"trial_type":"html-keyboard-response","trial_index":97,"time_elapsed":309744,"internal_node_id":"0.0-19.36-1.36"},{"rt":320.34999993629754,"stimulus":"<p>Choose a box,</p>","button_pressed":1,"trial_type":"html-button-response","trial_index":98,"time_elapsed":310066,"internal_node_id":"0.0-19.37-0.37"},{"rate":0.3121807624677165,"trial_type":"html-keyboard-response","trial_index":99,"time_elapsed":310066,"internal_node_id":"0.0-19.37-1.37"},{"rt":null,"stimulus":"<div style=\"background-color:#ff7157\"><h1 style=\"background-color:Tomato\">Bad luck! There was no prize in the box!</h1><h1 style=\"background-color:Tomato\">Remember, you need to keep going until you have 20 prizes!</h1><img id=\"box\" src=\"img/sad/greenopenboxsadthumb.png\"></img></div>","key_press":null,"trial_type":"html-keyboard-response","trial_index":99,"time_elapsed":311568,"internal_node_id":"0.0-19.37-1.37"},{"rt":296.59499996341765,"stimulus":"<p>Choose a box,</p>","button_pressed":1,"trial_type":"html-button-response","trial_index":100,"time_elapsed":311866,"internal_node_id":"0.0-19.38-0.38"},{"rate":0.3121807624677165,"trial_type":"html-keyboard-response","trial_index":101,"time_elapsed":311866,"internal_node_id":"0.0-19.38-1.38"},{"rt":null,"stimulus":"<div style=\"background-color:#ff7157\"><h1 style=\"background-color:Tomato\">Bad luck! There was no prize in the box!</h1><h1 style=\"background-color:Tomato\">Remember, you need to keep going until you have 20 prizes!</h1><img id=\"box\" src=\"img/sad/greenopenboxsadthumb.png\"></img></div>","key_press":null,"trial_type":"html-keyboard-response","trial_index":101,"time_elapsed":313368,"internal_node_id":"0.0-19.38-1.38"},{"rt":328.09500000439584,"stimulus":"<p>Choose a box,</p>","button_pressed":1,"trial_type":"html-button-response","trial_index":102,"time_elapsed":313698,"internal_node_id":"0.0-19.39-0.39"},{"rate":0.3121807624677165,"trial_type":"html-keyboard-response","trial_index":103,"time_elapsed":313698,"internal_node_id":"0.0-19.39-1.39"},{"rt":null,"stimulus":"<div style=\"background-color:#6dce98\"><h1 style=\"background-color:MediumSeaGreen\" >You won a prize! Well done!</h1><div style=\"background-color:#6dce98\"><h1 style=\"background-color:MediumSeaGreen\" >Only 0 left to go!</h1><img id=\"box\" src=\"img/prizes/lolipop.png\"></img><img id=\"box\" src=\"img/empty/greenopenbox.png\"></img></div>","key_press":null,"trial_type":"html-keyboard-response","trial_index":103,"time_elapsed":315200,"internal_node_id":"0.0-19.39-1.39"},{"rt":58697.57999991998,"responses":"{\"Q0\":\"It was interesting, and I'm curious about the results of the study in the end.\",\"Q1\":\"I choose a pattern and I repeated it since it seemed to be working.\"}","trial_type":"survey-text","trial_index":104,"time_elapsed":373906,"internal_node_id":"0.0-20.0"}]