[{"view_history":"[{\"page_index\":0,\"viewing_time\":4654.799999989336},{\"page_index\":1,\"viewing_time\":8050.500000012107},{\"page_index\":2,\"viewing_time\":7467.499999998836},{\"page_index\":3,\"viewing_time\":15672.39999998128},{\"page_index\":4,\"viewing_time\":6124.00000001071},{\"page_index\":5,\"viewing_time\":6641.800000012154}]","rt":48612.30000000796,"trial_type":"instructions","trial_index":0,"time_elapsed":48619,"internal_node_id":"0.0-0.0"},{"rt":14743.09999999241,"responses":"{\"Q0\":\"Yes\",\"Q1\":\"Yes\",\"Q2\":\"Yes\"}","question_order":"[0,1,2]","trial_type":"survey-multi-choice","trial_index":1,"time_elapsed":63370,"internal_node_id":"0.0-1.0-0.0"},{"rt":13209.000000002561,"responses":"{\"Q0\":\"Yes\",\"Q1\":\"Yes\",\"Q2\":\"Yes\"}","question_order":"[0,1,2]","trial_type":"survey-multi-choice","trial_index":2,"time_elapsed":76588,"internal_node_id":"0.0-2.0-0.0"},{"rt":3794.6999999985565,"responses":"{\"Q0\":\"603ce965ab9d37a8c4b55f12\"}","trial_type":"survey-text","trial_index":3,"time_elapsed":80399,"internal_node_id":"0.0-3.0"},{"rt":92519.70000000438,"responses":"{\"Q0\":\"Male\",\"Q1\":\"25-34\"}","question_order":"[0,1]","trial_type":"survey-multi-choice","trial_index":4,"time_elapsed":172936,"internal_node_id":"0.0-4.0"},{"rt":16403.100000025006,"responses":"{\"Q0\":\"None\"}","trial_type":"survey-text","trial_index":5,"time_elapsed":189362,"internal_node_id":"0.0-5.0"},{"view_history":"[{\"page_index\":0,\"viewing_time\":8939.800000021933}]","rt":8940.800000011222,"trial_type":"instructions","trial_index":6,"time_elapsed":198308,"internal_node_id":"0.0-6.0"},{"rt":21391.10000000801,"responses":"{\"Interested\":2,\"Distressed\":0,\"Excited\":3,\"Upset\":2}","question_order":"[0,1,2,3]","trial_type":"survey-likert","trial_index":7,"time_elapsed":219716,"internal_node_id":"0.0-7.0"},{"rt":16526.900000026217,"responses":"{\"Strong\":3,\"Guilty\":1,\"Scared\":1,\"Hostile\":1}","question_order":"[0,1,2,3]","trial_type":"survey-likert","trial_index":8,"time_elapsed":236252,"internal_node_id":"0.0-8.0"},{"rt":14217.499999998836,"responses":"{\"Enthusiastic\":1,\"Proud\":3,\"Irritable\":1,\"Alert\":2}","question_order":"[0,1,2,3]","trial_type":"survey-likert","trial_index":9,"time_elapsed":250479,"internal_node_id":"0.0-9.0"},{"rt":13799.700000003213,"responses":"{\"Ashamed\":0,\"Inspired\":3,\"Nervous\":1,\"Determined\":4}","question_order":"[0,1,2,3]","trial_type":"survey-likert","trial_index":10,"time_elapsed":264288,"internal_node_id":"0.0-10.0"},{"rt":10318.900000012945,"responses":"{\"Attentive\":3,\"Jittery\":1,\"Active\":3,\"Afraid\":0}","question_order":"[0,1,2,3]","trial_type":"survey-likert","trial_index":11,"time_elapsed":274617,"internal_node_id":"0.0-11.0"},{"rt":20748.59999999171,"responses":"{\"Q0\":2,\"Q1\":0,\"Q2\":0,\"Q3\":0}","question_order":"[0,1,2,3]","trial_type":"survey-likert","trial_index":12,"time_elapsed":295375,"internal_node_id":"0.0-12.0"},{"rt":19207.800000003772,"responses":"{\"Q0\":0,\"Q1\":0,\"Q2\":0,\"Q3\":0}","question_order":"[0,1,2,3]","trial_type":"survey-likert","trial_index":13,"time_elapsed":314592,"internal_node_id":"0.0-13.0"},{"rt":18783.299999980954,"responses":"{\"Q0\":0,\"Q1\":0,\"Q2\":0,\"Q3\":0}","question_order":"[0,1,2,3]","trial_type":"survey-likert","trial_index":14,"time_elapsed":333387,"internal_node_id":"0.0-14.0"},{"rt":17125.30000001425,"responses":"{\"Q0\":0,\"Q1\":0,\"Q2\":0}","question_order":"[0,1,2]","trial_type":"survey-likert","trial_index":15,"time_elapsed":350523,"internal_node_id":"0.0-15.0"},{"view_history":"[{\"page_index\":0,\"viewing_time\":5765.800000022864},{\"page_index\":1,\"viewing_time\":13288.39999999036},{\"page_index\":2,\"viewing_time\":11422.69999999553}]","rt":30478.800000011688,"trial_type":"instructions","trial_index":16,"time_elapsed":381049,"internal_node_id":"0.0-16.0"},{"rt":5271.3000000221655,"stimulus":"<p>Choose a box,</p>","button_pressed":3,"trial_type":"html-button-response","trial_index":17,"time_elapsed":386333,"internal_node_id":"0.0-17.0-0.0"},{"rate":0.3209797415327993,"trial_type":"html-keyboard-response","trial_index":18,"time_elapsed":386335,"internal_node_id":"0.0-17.0-1.0"},{"rt":null,"stimulus":"<div style=\"background-color:#ff7157\"><h1 style=\"background-color:Tomato\">Bad luck! There was no prize in the box!</h1><h1 style=\"background-color:Tomato\">Remember, you need to keep going until you have 20 prizes!</h1><img id=\"box\" src=\"img/sad/redopenboxsadthumb.png\"></img></div>","key_press":null,"trial_type":"html-keyboard-response","trial_index":18,"time_elapsed":387849,"internal_node_id":"0.0-17.0-1.0"},{"rt":3218.30000000773,"stimulus":"<p>Choose a box,</p>","button_pressed":0,"trial_type":"html-button-response","trial_index":19,"time_elapsed":391086,"internal_node_id":"0.0-17.0-0.1"},{"rate":0.171133248249022,"trial_type":"html-keyboard-response","trial_index":20,"time_elapsed":391087,"internal_node_id":"0.0-17.0-1.1"},{"rt":null,"stimulus":"<div style=\"background-color:#ff7157\"><h1 style=\"background-color:Tomato\">Bad luck! There was no prize in the box!</h1><h1 style=\"background-color:Tomato\">Remember, you need to keep going until you have 20 prizes!</h1><img id=\"box\" src=\"img/sad/blueopenboxsadthumb.png\"></img></div>","key_press":null,"trial_type":"html-keyboard-response","trial_index":20,"time_elapsed":392593,"internal_node_id":"0.0-17.0-1.1"},{"rt":3999.10000001546,"stimulus":"<p>Choose a box,</p>","button_pressed":2,"trial_type":"html-button-response","trial_index":21,"time_elapsed":396615,"internal_node_id":"0.0-17.0-0.2"},{"rate":0.49109262988405544,"trial_type":"html-keyboard-response","trial_index":22,"time_elapsed":396616,"internal_node_id":"0.0-17.0-1.2"},{"rt":null,"stimulus":"<div style=\"background-color:#ff7157\"><h1 style=\"background-color:Tomato\">Bad luck! There was no prize in the box!</h1><h1 style=\"background-color:Tomato\">Remember, you need to keep going until you have 20 prizes!</h1><img id=\"box\" src=\"img/sad/purpleopenboxsadthumb.png\"></img></div>","key_press":null,"trial_type":"html-keyboard-response","trial_index":22,"time_elapsed":398125,"internal_node_id":"0.0-17.0-1.2"},{"view_history":"[{\"page_index\":0,\"viewing_time\":9607.300000003306}]","rt":9608.500000002095,"trial_type":"instructions","trial_index":23,"time_elapsed":407742,"internal_node_id":"0.0-18.0"},{"rt":2885.8999999938533,"stimulus":"<p>Choose a box,</p>","button_pressed":1,"trial_type":"html-button-response","trial_index":24,"time_elapsed":410634,"internal_node_id":"0.0-19.0-0.0"},{"rate":0.16338167230669745,"trial_type":"html-keyboard-response","trial_index":25,"time_elapsed":410635,"internal_node_id":"0.0-19.0-1.0"},{"rt":null,"stimulus":"<div style=\"background-color:#ff7157\"><h1 style=\"background-color:Tomato\">Bad luck! There was no prize in the box!</h1><h1 style=\"background-color:Tomato\">Remember, you need to keep going until you have 20 prizes!</h1><img id=\"box\" src=\"img/sad/greenopenboxsadthumb.png\"></img></div>","key_press":null,"trial_type":"html-keyboard-response","trial_index":25,"time_elapsed":412140,"internal_node_id":"0.0-19.0-1.0"},{"rt":3500.800000008894,"stimulus":"<p>Choose a box,</p>","button_pressed":0,"trial_type":"html-button-response","trial_index":26,"time_elapsed":415661,"internal_node_id":"0.0-19.1-0.1"},{"rate":0.464152122993463,"trial_type":"html-keyboard-response","trial_index":27,"time_elapsed":415662,"internal_node_id":"0.0-19.1-1.1"},{"rt":null,"stimulus":"<div style=\"background-color:#6dce98\"><h1 style=\"background-color:MediumSeaGreen\" >You won a prize! Well done!</h1><div style=\"background-color:#6dce98\"><h1 style=\"background-color:MediumSeaGreen\" >Only 19 left to go!</h1><img id=\"box\" src=\"img/prizes/bear.png\"></img><img id=\"box\" src=\"img/empty/blueopenbox.png\"></img></div>","key_press":null,"trial_type":"html-keyboard-response","trial_index":27,"time_elapsed":417170,"internal_node_id":"0.0-19.1-1.1"},{"rt":2324.0999999979977,"stimulus":"<p>Choose a box,</p>","button_pressed":3,"trial_type":"html-button-response","trial_index":28,"time_elapsed":419511,"internal_node_id":"0.0-19.2-0.2"},{"rate":0.8897463606281949,"trial_type":"html-keyboard-response","trial_index":29,"time_elapsed":419512,"internal_node_id":"0.0-19.2-1.2"},{"rt":null,"stimulus":"<div style=\"background-color:#6dce98\"><h1 style=\"background-color:MediumSeaGreen\" >You won a prize! Well done!</h1><div style=\"background-color:#6dce98\"><h1 style=\"background-color:MediumSeaGreen\" >Only 18 left to go!</h1><img id=\"box\" src=\"img/prizes/bear.png\"></img><img id=\"box\" src=\"img/empty/redopenbox.png\"></img></div>","key_press":null,"trial_type":"html-keyboard-response","trial_index":29,"time_elapsed":421019,"internal_node_id":"0.0-19.2-1.2"},{"rt":2193.1000000040513,"stimulus":"<p>Choose a box,</p>","button_pressed":2,"trial_type":"html-button-response","trial_index":30,"time_elapsed":423229,"internal_node_id":"0.0-19.3-0.3"},{"rate":0.3490484542758709,"trial_type":"html-keyboard-response","trial_index":31,"time_elapsed":423229,"internal_node_id":"0.0-19.3-1.3"},{"rt":null,"stimulus":"<div style=\"background-color:#ff7157\"><h1 style=\"background-color:Tomato\">Bad luck! There was no prize in the box!</h1><h1 style=\"background-color:Tomato\">Remember, you need to keep going until you have 20 prizes!</h1><img id=\"box\" src=\"img/sad/purpleopenboxsadthumb.png\"></img></div>","key_press":null,"trial_type":"html-keyboard-response","trial_index":31,"time_elapsed":424734,"internal_node_id":"0.0-19.3-1.3"},{"rt":3771.099999983562,"stimulus":"<p>Choose a box,</p>","button_pressed":0,"trial_type":"html-button-response","trial_index":32,"time_elapsed":428527,"internal_node_id":"0.0-19.4-0.4"},{"rate":0.464152122993463,"trial_type":"html-keyboard-response","trial_index":33,"time_elapsed":428527,"internal_node_id":"0.0-19.4-1.4"},{"rt":null,"stimulus":"<div style=\"background-color:#6dce98\"><h1 style=\"background-color:MediumSeaGreen\" >You won a prize! Well done!</h1><div style=\"background-color:#6dce98\"><h1 style=\"background-color:MediumSeaGreen\" >Only 17 left to go!</h1><img id=\"box\" src=\"img/prizes/choc.png\"></img><img id=\"box\" src=\"img/empty/blueopenbox.png\"></img></div>","key_press":null,"trial_type":"html-keyboard-response","trial_index":33,"time_elapsed":430034,"internal_node_id":"0.0-19.4-1.4"},{"rt":1918.999999994412,"stimulus":"<p>Choose a box,</p>","button_pressed":0,"trial_type":"html-button-response","trial_index":34,"time_elapsed":431971,"internal_node_id":"0.0-19.5-0.5"},{"rate":0.464152122993463,"trial_type":"html-keyboard-response","trial_index":35,"time_elapsed":431972,"internal_node_id":"0.0-19.5-1.5"},{"rt":null,"stimulus":"<div style=\"background-color:#ff7157\"><h1 style=\"background-color:Tomato\">Bad luck! There was no prize in the box!</h1><h1 style=\"background-color:Tomato\">Remember, you need to keep going until you have 20 prizes!</h1><img id=\"box\" src=\"img/sad/blueopenboxsadthumb.png\"></img></div>","key_press":null,"trial_type":"html-keyboard-response","trial_index":35,"time_elapsed":433479,"internal_node_id":"0.0-19.5-1.5"},{"rt":1619.6000000054482,"stimulus":"<p>Choose a box,</p>","button_pressed":1,"trial_type":"html-button-response","trial_index":36,"time_elapsed":435114,"internal_node_id":"0.0-19.6-0.6"},{"rate":0.16338167230669745,"trial_type":"html-keyboard-response","trial_index":37,"time_elapsed":435115,"internal_node_id":"0.0-19.6-1.6"},{"rt":null,"stimulus":"<div style=\"background-color:#ff7157\"><h1 style=\"background-color:Tomato\">Bad luck! There was no prize in the box!</h1><h1 style=\"background-color:Tomato\">Remember, you need to keep going until you have 20 prizes!</h1><img id=\"box\" src=\"img/sad/greenopenboxsadthumb.png\"></img></div>","key_press":null,"trial_type":"html-keyboard-response","trial_index":37,"time_elapsed":436618,"internal_node_id":"0.0-19.6-1.6"},{"rt":1005.1000000094064,"stimulus":"<p>Choose a box,</p>","button_pressed":3,"trial_type":"html-button-response","trial_index":38,"time_elapsed":437629,"internal_node_id":"0.0-19.7-0.7"},{"rate":0.8897463606281949,"trial_type":"html-keyboard-response","trial_index":39,"time_elapsed":437629,"internal_node_id":"0.0-19.7-1.7"},{"rt":null,"stimulus":"<div style=\"background-color:#6dce98\"><h1 style=\"background-color:MediumSeaGreen\" >You won a prize! Well done!</h1><div style=\"background-color:#6dce98\"><h1 style=\"background-color:MediumSeaGreen\" >Only 16 left to go!</h1><img id=\"box\" src=\"img/prizes/lolipop.png\"></img><img id=\"box\" src=\"img/empty/redopenbox.png\"></img></div>","key_press":null,"trial_type":"html-keyboard-response","trial_index":39,"time_elapsed":439137,"internal_node_id":"0.0-19.7-1.7"},{"rt":2104.2000000015832,"stimulus":"<p>Choose a box,</p>","button_pressed":2,"trial_type":"html-button-response","trial_index":40,"time_elapsed":441261,"internal_node_id":"0.0-19.8-0.8"},{"rate":0.3490484542758709,"trial_type":"html-keyboard-response","trial_index":41,"time_elapsed":441262,"internal_node_id":"0.0-19.8-1.8"},{"rt":null,"stimulus":"<div style=\"background-color:#ff7157\"><h1 style=\"background-color:Tomato\">Bad luck! There was no prize in the box!</h1><h1 style=\"background-color:Tomato\">Remember, you need to keep going until you have 20 prizes!</h1><img id=\"box\" src=\"img/sad/purpleopenboxsadthumb.png\"></img></div>","key_press":null,"trial_type":"html-keyboard-response","trial_index":41,"time_elapsed":442765,"internal_node_id":"0.0-19.8-1.8"},{"rt":1031.5999999875203,"stimulus":"<p>Choose a box,</p>","button_pressed":3,"trial_type":"html-button-response","trial_index":42,"time_elapsed":443802,"internal_node_id":"0.0-19.9-0.9"},{"rate":0.8897463606281949,"trial_type":"html-keyboard-response","trial_index":43,"time_elapsed":443803,"internal_node_id":"0.0-19.9-1.9"},{"rt":null,"stimulus":"<div style=\"background-color:#6dce98\"><h1 style=\"background-color:MediumSeaGreen\" >You won a prize! Well done!</h1><div style=\"background-color:#6dce98\"><h1 style=\"background-color:MediumSeaGreen\" >Only 15 left to go!</h1><img id=\"box\" src=\"img/prizes/coins.png\"></img><img id=\"box\" src=\"img/empty/redopenbox.png\"></img></div>","key_press":null,"trial_type":"html-keyboard-response","trial_index":43,"time_elapsed":445316,"internal_node_id":"0.0-19.9-1.9"},{"rt":2199.799999973038,"stimulus":"<p>Choose a box,</p>","button_pressed":0,"trial_type":"html-button-response","trial_index":44,"time_elapsed":447536,"internal_node_id":"0.0-19.10-0.10"},{"rate":0.464152122993463,"trial_type":"html-keyboard-response","trial_index":45,"time_elapsed":447537,"internal_node_id":"0.0-19.10-1.10"},{"rt":null,"stimulus":"<div style=\"background-color:#6dce98\"><h1 style=\"background-color:MediumSeaGreen\" >You won a prize! Well done!</h1><div style=\"background-color:#6dce98\"><h1 style=\"background-color:MediumSeaGreen\" >Only 14 left to go!</h1><img id=\"box\" src=\"img/prizes/lolipop.png\"></img><img id=\"box\" src=\"img/empty/blueopenbox.png\"></img></div>","key_press":null,"trial_type":"html-keyboard-response","trial_index":45,"time_elapsed":449045,"internal_node_id":"0.0-19.10-1.10"},{"rt":1364.3000000156462,"stimulus":"<p>Choose a box,</p>","button_pressed":0,"trial_type":"html-button-response","trial_index":46,"time_elapsed":450427,"internal_node_id":"0.0-19.11-0.11"},{"rate":0.464152122993463,"trial_type":"html-keyboard-response","trial_index":47,"time_elapsed":450428,"internal_node_id":"0.0-19.11-1.11"},{"rt":null,"stimulus":"<div style=\"background-color:#6dce98\"><h1 style=\"background-color:MediumSeaGreen\" >You won a prize! Well done!</h1><div style=\"background-color:#6dce98\"><h1 style=\"background-color:MediumSeaGreen\" >Only 13 left to go!</h1><img id=\"box\" src=\"img/prizes/flowers.png\"></img><img id=\"box\" src=\"img/empty/blueopenbox.png\"></img></div>","key_press":null,"trial_type":"html-keyboard-response","trial_index":47,"time_elapsed":451933,"internal_node_id":"0.0-19.11-1.11"},{"rt":1848.3000000123866,"stimulus":"<p>Choose a box,</p>","button_pressed":2,"trial_type":"html-button-response","trial_index":48,"time_elapsed":453797,"internal_node_id":"0.0-19.12-0.12"},{"rate":0.3490484542758709,"trial_type":"html-keyboard-response","trial_index":49,"time_elapsed":453798,"internal_node_id":"0.0-19.12-1.12"},{"rt":null,"stimulus":"<div style=\"background-color:#ff7157\"><h1 style=\"background-color:Tomato\">Bad luck! There was no prize in the box!</h1><h1 style=\"background-color:Tomato\">Remember, you need to keep going until you have 20 prizes!</h1><img id=\"box\" src=\"img/sad/purpleopenboxsadthumb.png\"></img></div>","key_press":null,"trial_type":"html-keyboard-response","trial_index":49,"time_elapsed":455301,"internal_node_id":"0.0-19.12-1.12"},{"rt":889.4999999902211,"stimulus":"<p>Choose a box,</p>","button_pressed":1,"trial_type":"html-button-response","trial_index":50,"time_elapsed":456204,"internal_node_id":"0.0-19.13-0.13"},{"rate":0.16338167230669745,"trial_type":"html-keyboard-response","trial_index":51,"time_elapsed":456205,"internal_node_id":"0.0-19.13-1.13"},{"rt":null,"stimulus":"<div style=\"background-color:#ff7157\"><h1 style=\"background-color:Tomato\">Bad luck! There was no prize in the box!</h1><h1 style=\"background-color:Tomato\">Remember, you need to keep going until you have 20 prizes!</h1><img id=\"box\" src=\"img/sad/greenopenboxsadthumb.png\"></img></div>","key_press":null,"trial_type":"html-keyboard-response","trial_index":51,"time_elapsed":457711,"internal_node_id":"0.0-19.13-1.13"},{"rt":822.0000000146683,"stimulus":"<p>Choose a box,</p>","button_pressed":3,"trial_type":"html-button-response","trial_index":52,"time_elapsed":458555,"internal_node_id":"0.0-19.14-0.14"},{"rate":0.8897463606281949,"trial_type":"html-keyboard-response","trial_index":53,"time_elapsed":458555,"internal_node_id":"0.0-19.14-1.14"},{"rt":null,"stimulus":"<div style=\"background-color:#6dce98\"><h1 style=\"background-color:MediumSeaGreen\" >You won a prize! Well done!</h1><div style=\"background-color:#6dce98\"><h1 style=\"background-color:MediumSeaGreen\" >Only 12 left to go!</h1><img id=\"box\" src=\"img/prizes/lolipop.png\"></img><img id=\"box\" src=\"img/empty/redopenbox.png\"></img></div>","key_press":null,"trial_type":"html-keyboard-response","trial_index":53,"time_elapsed":460061,"internal_node_id":"0.0-19.14-1.14"},{"rt":1134.200000000419,"stimulus":"<p>Choose a box,</p>","button_pressed":3,"trial_type":"html-button-response","trial_index":54,"time_elapsed":461214,"internal_node_id":"0.0-19.15-0.15"},{"rate":0.8897463606281949,"trial_type":"html-keyboard-response","trial_index":55,"time_elapsed":461215,"internal_node_id":"0.0-19.15-1.15"},{"rt":null,"stimulus":"<div style=\"background-color:#6dce98\"><h1 style=\"background-color:MediumSeaGreen\" >You won a prize! Well done!</h1><div style=\"background-color:#6dce98\"><h1 style=\"background-color:MediumSeaGreen\" >Only 11 left to go!</h1><img id=\"box\" src=\"img/prizes/beachball.png\"></img><img id=\"box\" src=\"img/empty/redopenbox.png\"></img></div>","key_press":null,"trial_type":"html-keyboard-response","trial_index":55,"time_elapsed":462721,"internal_node_id":"0.0-19.15-1.15"},{"rt":1659.700000018347,"stimulus":"<p>Choose a box,</p>","button_pressed":3,"trial_type":"html-button-response","trial_index":56,"time_elapsed":464391,"internal_node_id":"0.0-19.16-0.16"},{"rate":0.8897463606281949,"trial_type":"html-keyboard-response","trial_index":57,"time_elapsed":464391,"internal_node_id":"0.0-19.16-1.16"},{"rt":null,"stimulus":"<div style=\"background-color:#6dce98\"><h1 style=\"background-color:MediumSeaGreen\" >You won a prize! Well done!</h1><div style=\"background-color:#6dce98\"><h1 style=\"background-color:MediumSeaGreen\" >Only 10 left to go!</h1><img id=\"box\" src=\"img/prizes/lolipop.png\"></img><img id=\"box\" src=\"img/empty/redopenbox.png\"></img></div>","key_press":null,"trial_type":"html-keyboard-response","trial_index":57,"time_elapsed":465900,"internal_node_id":"0.0-19.16-1.16"},{"rt":869.0999999816995,"stimulus":"<p>Choose a box,</p>","button_pressed":3,"trial_type":"html-button-response","trial_index":58,"time_elapsed":466790,"internal_node_id":"0.0-19.17-0.17"},{"rate":0.8897463606281949,"trial_type":"html-keyboard-response","trial_index":59,"time_elapsed":466791,"internal_node_id":"0.0-19.17-1.17"},{"rt":null,"stimulus":"<div style=\"background-color:#6dce98\"><h1 style=\"background-color:MediumSeaGreen\" >You won a prize! Well done!</h1><div style=\"background-color:#6dce98\"><h1 style=\"background-color:MediumSeaGreen\" >Only 9 left to go!</h1><img id=\"box\" src=\"img/prizes/bear.png\"></img><img id=\"box\" src=\"img/empty/redopenbox.png\"></img></div>","key_press":null,"trial_type":"html-keyboard-response","trial_index":59,"time_elapsed":468297,"internal_node_id":"0.0-19.17-1.17"},{"rt":780.80000000773,"stimulus":"<p>Choose a box,</p>","button_pressed":3,"trial_type":"html-button-response","trial_index":60,"time_elapsed":469094,"internal_node_id":"0.0-19.18-0.18"},{"rate":0.8897463606281949,"trial_type":"html-keyboard-response","trial_index":61,"time_elapsed":469094,"internal_node_id":"0.0-19.18-1.18"},{"rt":null,"stimulus":"<div style=\"background-color:#6dce98\"><h1 style=\"background-color:MediumSeaGreen\" >You won a prize! Well done!</h1><div style=\"background-color:#6dce98\"><h1 style=\"background-color:MediumSeaGreen\" >Only 8 left to go!</h1><img id=\"box\" src=\"img/prizes/duck.png\"></img><img id=\"box\" src=\"img/empty/redopenbox.png\"></img></div>","key_press":null,"trial_type":"html-keyboard-response","trial_index":61,"time_elapsed":470599,"internal_node_id":"0.0-19.18-1.18"},{"rt":1232.9000000027008,"stimulus":"<p>Choose a box,</p>","button_pressed":3,"trial_type":"html-button-response","trial_index":62,"time_elapsed":471850,"internal_node_id":"0.0-19.19-0.19"},{"rate":0.8897463606281949,"trial_type":"html-keyboard-response","trial_index":63,"time_elapsed":471850,"internal_node_id":"0.0-19.19-1.19"},{"rt":null,"stimulus":"<div style=\"background-color:#6dce98\"><h1 style=\"background-color:MediumSeaGreen\" >You won a prize! Well done!</h1><div style=\"background-color:#6dce98\"><h1 style=\"background-color:MediumSeaGreen\" >Only 7 left to go!</h1><img id=\"box\" src=\"img/prizes/yoyo.png\"></img><img id=\"box\" src=\"img/empty/redopenbox.png\"></img></div>","key_press":null,"trial_type":"html-keyboard-response","trial_index":63,"time_elapsed":473357,"internal_node_id":"0.0-19.19-1.19"},{"rt":941.900000005262,"stimulus":"<p>Choose a box,</p>","button_pressed":3,"trial_type":"html-button-response","trial_index":64,"time_elapsed":474326,"internal_node_id":"0.0-19.20-0.20"},{"rate":0.8897463606281949,"trial_type":"html-keyboard-response","trial_index":65,"time_elapsed":474326,"internal_node_id":"0.0-19.20-1.20"},{"rt":null,"stimulus":"<div style=\"background-color:#6dce98\"><h1 style=\"background-color:MediumSeaGreen\" >You won a prize! Well done!</h1><div style=\"background-color:#6dce98\"><h1 style=\"background-color:MediumSeaGreen\" >Only 6 left to go!</h1><img id=\"box\" src=\"img/prizes/yoyo.png\"></img><img id=\"box\" src=\"img/empty/redopenbox.png\"></img></div>","key_press":null,"trial_type":"html-keyboard-response","trial_index":65,"time_elapsed":475833,"internal_node_id":"0.0-19.20-1.20"},{"rt":801.500000001397,"stimulus":"<p>Choose a box,</p>","button_pressed":0,"trial_type":"html-button-response","trial_index":66,"time_elapsed":476653,"internal_node_id":"0.0-19.21-0.21"},{"rate":0.464152122993463,"trial_type":"html-keyboard-response","trial_index":67,"time_elapsed":476653,"internal_node_id":"0.0-19.21-1.21"},{"rt":null,"stimulus":"<div style=\"background-color:#ff7157\"><h1 style=\"background-color:Tomato\">Bad luck! There was no prize in the box!</h1><h1 style=\"background-color:Tomato\">Remember, you need to keep going until you have 20 prizes!</h1><img id=\"box\" src=\"img/sad/blueopenboxsadthumb.png\"></img></div>","key_press":null,"trial_type":"html-keyboard-response","trial_index":67,"time_elapsed":478157,"internal_node_id":"0.0-19.21-1.21"},{"rt":800.9000000020023,"stimulus":"<p>Choose a box,</p>","button_pressed":3,"trial_type":"html-button-response","trial_index":68,"time_elapsed":478963,"internal_node_id":"0.0-19.22-0.22"},{"rate":0.8897463606281949,"trial_type":"html-keyboard-response","trial_index":69,"time_elapsed":478964,"internal_node_id":"0.0-19.22-1.22"},{"rt":null,"stimulus":"<div style=\"background-color:#ff7157\"><h1 style=\"background-color:Tomato\">Bad luck! There was no prize in the box!</h1><h1 style=\"background-color:Tomato\">Remember, you need to keep going until you have 20 prizes!</h1><img id=\"box\" src=\"img/sad/redopenboxsadthumb.png\"></img></div>","key_press":null,"trial_type":"html-keyboard-response","trial_index":69,"time_elapsed":480469,"internal_node_id":"0.0-19.22-1.22"},{"rt":940.8999999868684,"stimulus":"<p>Choose a box,</p>","button_pressed":2,"trial_type":"html-button-response","trial_index":70,"time_elapsed":481426,"internal_node_id":"0.0-19.23-0.23"},{"rate":0.3490484542758709,"trial_type":"html-keyboard-response","trial_index":71,"time_elapsed":481427,"internal_node_id":"0.0-19.23-1.23"},{"rt":null,"stimulus":"<div style=\"background-color:#6dce98\"><h1 style=\"background-color:MediumSeaGreen\" >You won a prize! Well done!</h1><div style=\"background-color:#6dce98\"><h1 style=\"background-color:MediumSeaGreen\" >Only 5 left to go!</h1><img id=\"box\" src=\"img/prizes/flowers.png\"></img><img id=\"box\" src=\"img/empty/purpleopenbox.png\"></img></div>","key_press":null,"trial_type":"html-keyboard-response","trial_index":71,"time_elapsed":482931,"internal_node_id":"0.0-19.23-1.23"},{"rt":896.0000000079162,"stimulus":"<p>Choose a box,</p>","button_pressed":2,"trial_type":"html-button-response","trial_index":72,"time_elapsed":483847,"internal_node_id":"0.0-19.24-0.24"},{"rate":0.3490484542758709,"trial_type":"html-keyboard-response","trial_index":73,"time_elapsed":483847,"internal_node_id":"0.0-19.24-1.24"},{"rt":null,"stimulus":"<div style=\"background-color:#6dce98\"><h1 style=\"background-color:MediumSeaGreen\" >You won a prize! Well done!</h1><div style=\"background-color:#6dce98\"><h1 style=\"background-color:MediumSeaGreen\" >Only 4 left to go!</h1><img id=\"box\" src=\"img/prizes/coins.png\"></img><img id=\"box\" src=\"img/empty/purpleopenbox.png\"></img></div>","key_press":null,"trial_type":"html-keyboard-response","trial_index":73,"time_elapsed":485354,"internal_node_id":"0.0-19.24-1.24"},{"rt":891.9999999925494,"stimulus":"<p>Choose a box,</p>","button_pressed":2,"trial_type":"html-button-response","trial_index":74,"time_elapsed":486265,"internal_node_id":"0.0-19.25-0.25"},{"rate":0.3490484542758709,"trial_type":"html-keyboard-response","trial_index":75,"time_elapsed":486265,"internal_node_id":"0.0-19.25-1.25"},{"rt":null,"stimulus":"<div style=\"background-color:#ff7157\"><h1 style=\"background-color:Tomato\">Bad luck! There was no prize in the box!</h1><h1 style=\"background-color:Tomato\">Remember, you need to keep going until you have 20 prizes!</h1><img id=\"box\" src=\"img/sad/purpleopenboxsadthumb.png\"></img></div>","key_press":null,"trial_type":"html-keyboard-response","trial_index":75,"time_elapsed":487770,"internal_node_id":"0.0-19.25-1.25"},{"rt":1026.6999999876134,"stimulus":"<p>Choose a box,</p>","button_pressed":1,"trial_type":"html-button-response","trial_index":76,"time_elapsed":488817,"internal_node_id":"0.0-19.26-0.26"},{"rate":0.16338167230669745,"trial_type":"html-keyboard-response","trial_index":77,"time_elapsed":488817,"internal_node_id":"0.0-19.26-1.26"},{"rt":null,"stimulus":"<div style=\"background-color:#ff7157\"><h1 style=\"background-color:Tomato\">Bad luck! There was no prize in the box!</h1><h1 style=\"background-color:Tomato\">Remember, you need to keep going until you have 20 prizes!</h1><img id=\"box\" src=\"img/sad/greenopenboxsadthumb.png\"></img></div>","key_press":null,"trial_type":"html-keyboard-response","trial_index":77,"time_elapsed":490322,"internal_node_id":"0.0-19.26-1.26"},{"rt":853.3000000170432,"stimulus":"<p>Choose a box,</p>","button_pressed":0,"trial_type":"html-button-response","trial_index":78,"time_elapsed":491195,"internal_node_id":"0.0-19.27-0.27"},{"rate":0.464152122993463,"trial_type":"html-keyboard-response","trial_index":79,"time_elapsed":491196,"internal_node_id":"0.0-19.27-1.27"},{"rt":null,"stimulus":"<div style=\"background-color:#6dce98\"><h1 style=\"background-color:MediumSeaGreen\" >You won a prize! Well done!</h1><div style=\"background-color:#6dce98\"><h1 style=\"background-color:MediumSeaGreen\" >Only 3 left to go!</h1><img id=\"box\" src=\"img/prizes/yoyo.png\"></img><img id=\"box\" src=\"img/empty/blueopenbox.png\"></img></div>","key_press":null,"trial_type":"html-keyboard-response","trial_index":79,"time_elapsed":492701,"internal_node_id":"0.0-19.27-1.27"},{"rt":890.8999999985099,"stimulus":"<p>Choose a box,</p>","button_pressed":3,"trial_type":"html-button-response","trial_index":80,"time_elapsed":493603,"internal_node_id":"0.0-19.28-0.28"},{"rate":0.8897463606281949,"trial_type":"html-keyboard-response","trial_index":81,"time_elapsed":493604,"internal_node_id":"0.0-19.28-1.28"},{"rt":null,"stimulus":"<div style=\"background-color:#6dce98\"><h1 style=\"background-color:MediumSeaGreen\" >You won a prize! Well done!</h1><div style=\"background-color:#6dce98\"><h1 style=\"background-color:MediumSeaGreen\" >Only 2 left to go!</h1><img id=\"box\" src=\"img/prizes/beachball.png\"></img><img id=\"box\" src=\"img/empty/redopenbox.png\"></img></div>","key_press":null,"trial_type":"html-keyboard-response","trial_index":81,"time_elapsed":495110,"internal_node_id":"0.0-19.28-1.28"},{"rt":833.600000012666,"stimulus":"<p>Choose a box,</p>","button_pressed":3,"trial_type":"html-button-response","trial_index":82,"time_elapsed":495961,"internal_node_id":"0.0-19.29-0.29"},{"rate":0.8897463606281949,"trial_type":"html-keyboard-response","trial_index":83,"time_elapsed":495962,"internal_node_id":"0.0-19.29-1.29"},{"rt":null,"stimulus":"<div style=\"background-color:#6dce98\"><h1 style=\"background-color:MediumSeaGreen\" >You won a prize! Well done!</h1><div style=\"background-color:#6dce98\"><h1 style=\"background-color:MediumSeaGreen\" >Only 1 left to go!</h1><img id=\"box\" src=\"img/prizes/duck.png\"></img><img id=\"box\" src=\"img/empty/redopenbox.png\"></img></div>","key_press":null,"trial_type":"html-keyboard-response","trial_index":83,"time_elapsed":497470,"internal_node_id":"0.0-19.29-1.29"},{"rt":950.4000000015367,"stimulus":"<p>Choose a box,</p>","button_pressed":3,"trial_type":"html-button-response","trial_index":84,"time_elapsed":498441,"internal_node_id":"0.0-19.30-0.30"},{"rate":0.8897463606281949,"trial_type":"html-keyboard-response","trial_index":85,"time_elapsed":498442,"internal_node_id":"0.0-19.30-1.30"},{"rt":null,"stimulus":"<div style=\"background-color:#6dce98\"><h1 style=\"background-color:MediumSeaGreen\" >You won a prize! Well done!</h1><div style=\"background-color:#6dce98\"><h1 style=\"background-color:MediumSeaGreen\" >Only 0 left to go!</h1><img id=\"box\" src=\"img/prizes/duck.png\"></img><img id=\"box\" src=\"img/empty/redopenbox.png\"></img></div>","key_press":null,"trial_type":"html-keyboard-response","trial_index":85,"time_elapsed":499948,"internal_node_id":"0.0-19.30-1.30"},{"rt":31431.69999998645,"responses":"{\"Q0\":\"Interesting \",\"Q1\":\"The colours\"}","trial_type":"survey-text","trial_index":86,"time_elapsed":531450,"internal_node_id":"0.0-20.0"}]