[{"view_history":"[{\"page_index\":0,\"viewing_time\":27755.20499999402},{\"page_index\":1,\"viewing_time\":7412.6650000107475},{\"page_index\":2,\"viewing_time\":20116.80499999784},{\"page_index\":3,\"viewing_time\":39082.74500002153},{\"page_index\":4,\"viewing_time\":3413.7299999711104},{\"page_index\":5,\"viewing_time\":18462.830000033136}]","rt":116245.08999998216,"trial_type":"instructions","trial_index":0,"time_elapsed":116253,"internal_node_id":"0.0-0.0"},{"rt":7065.21500000963,"responses":"{\"Q0\":\"Yes\",\"Q1\":\"Yes\",\"Q2\":\"Yes\"}","question_order":"[0,1,2]","trial_type":"survey-multi-choice","trial_index":1,"time_elapsed":123321,"internal_node_id":"0.0-1.0-0.0"},{"rt":8978.730000031646,"responses":"{\"Q0\":\"Yes\",\"Q1\":\"Yes\",\"Q2\":\"Yes\"}","question_order":"[0,1,2]","trial_type":"survey-multi-choice","trial_index":2,"time_elapsed":132308,"internal_node_id":"0.0-2.0-0.0"},{"rt":5124.82500000624,"responses":"{\"Q0\":\"5e3042b0c02083040a01b4ca\"}","trial_type":"survey-text","trial_index":3,"time_elapsed":137442,"internal_node_id":"0.0-3.0"},{"rt":2932.139999989886,"responses":"{\"Q0\":\"Male\",\"Q1\":\"18-25\"}","question_order":"[0,1]","trial_type":"survey-multi-choice","trial_index":4,"time_elapsed":140376,"internal_node_id":"0.0-4.0"},{"rt":4963.424999965355,"responses":"{\"Q0\":\"\"}","trial_type":"survey-text","trial_index":5,"time_elapsed":145348,"internal_node_id":"0.0-5.0"},{"view_history":"[{\"page_index\":0,\"viewing_time\":1789.870000036899}]","rt":1790.2400000020862,"trial_type":"instructions","trial_index":6,"time_elapsed":147139,"internal_node_id":"0.0-6.0"},{"rt":17221.435000014026,"responses":"{\"Interested\":1,\"Distressed\":3,\"Excited\":0,\"Upset\":2}","question_order":"[0,1,2,3]","trial_type":"survey-likert","trial_index":7,"time_elapsed":164364,"internal_node_id":"0.0-7.0"},{"rt":17118.990000046324,"responses":"{\"Strong\":0,\"Guilty\":3,\"Scared\":1,\"Hostile\":0}","question_order":"[0,1,2,3]","trial_type":"survey-likert","trial_index":8,"time_elapsed":181490,"internal_node_id":"0.0-8.0"},{"rt":12024.739999964368,"responses":"{\"Enthusiastic\":1,\"Proud\":0,\"Irritable\":3,\"Alert\":1}","question_order":"[0,1,2,3]","trial_type":"survey-likert","trial_index":9,"time_elapsed":193523,"internal_node_id":"0.0-9.0"},{"rt":15656.309999991208,"responses":"{\"Ashamed\":2,\"Inspired\":0,\"Nervous\":3,\"Determined\":0}","question_order":"[0,1,2,3]","trial_type":"survey-likert","trial_index":10,"time_elapsed":209187,"internal_node_id":"0.0-10.0"},{"rt":20516.17499999702,"responses":"{\"Attentive\":1,\"Jittery\":4,\"Active\":0,\"Afraid\":2}","question_order":"[0,1,2,3]","trial_type":"survey-likert","trial_index":11,"time_elapsed":229711,"internal_node_id":"0.0-11.0"},{"rt":15271.750000014435,"responses":"{\"Q0\":2,\"Q1\":3,\"Q2\":0,\"Q3\":1}","question_order":"[0,1,2,3]","trial_type":"survey-likert","trial_index":12,"time_elapsed":244990,"internal_node_id":"0.0-12.0"},{"rt":20197.184999997262,"responses":"{\"Q0\":2,\"Q1\":3,\"Q2\":0,\"Q3\":0}","question_order":"[0,1,2,3]","trial_type":"survey-likert","trial_index":13,"time_elapsed":265195,"internal_node_id":"0.0-13.0"},{"rt":51309.03499998385,"responses":"{\"Q0\":2,\"Q1\":3,\"Q2\":2,\"Q3\":1}","question_order":"[0,1,2,3]","trial_type":"survey-likert","trial_index":14,"time_elapsed":316510,"internal_node_id":"0.0-14.0"},{"rt":32103.4450000152,"responses":"{\"Q0\":1,\"Q1\":2,\"Q2\":3}","question_order":"[0,1,2]","trial_type":"survey-likert","trial_index":15,"time_elapsed":348620,"internal_node_id":"0.0-15.0"},{"view_history":"[{\"page_index\":0,\"viewing_time\":2001.9650000031106},{\"page_index\":1,\"viewing_time\":4589.689999993425},{\"page_index\":2,\"viewing_time\":4533.090000040829}]","rt":11125.82499999553,"trial_type":"instructions","trial_index":16,"time_elapsed":359757,"internal_node_id":"0.0-16.0"},{"rt":1197.1499999635853,"stimulus":"<p>Choose a box,</p>","button_pressed":2,"trial_type":"html-button-response","trial_index":17,"time_elapsed":360957,"internal_node_id":"0.0-17.0-0.0"},{"rate":0.5973993174153951,"trial_type":"html-keyboard-response","trial_index":18,"time_elapsed":360957,"internal_node_id":"0.0-17.0-1.0"},{"rt":null,"stimulus":"<div style=\"background-color:#6dce98\"><h1 style=\"background-color:MediumSeaGreen\" >You won a prize! Well done!</h1><div style=\"background-color:#6dce98\"><h1 style=\"background-color:MediumSeaGreen\" >Only 19 left to go!</h1><img id=\"box\" src=\"img/prizes/bear.png\"></img><img id=\"box\" src=\"img/empty/purpleopenbox.png\"></img></div>","key_press":null,"trial_type":"html-keyboard-response","trial_index":18,"time_elapsed":362472,"internal_node_id":"0.0-17.0-1.0"},{"rt":2296.295000007376,"stimulus":"<p>Choose a box,</p>","button_pressed":3,"trial_type":"html-button-response","trial_index":19,"time_elapsed":364771,"internal_node_id":"0.0-17.0-0.1"},{"rate":0.48306828935197765,"trial_type":"html-keyboard-response","trial_index":20,"time_elapsed":364771,"internal_node_id":"0.0-17.0-1.1"},{"rt":null,"stimulus":"<div style=\"background-color:#6dce98\"><h1 style=\"background-color:MediumSeaGreen\" >You won a prize! Well done!</h1><div style=\"background-color:#6dce98\"><h1 style=\"background-color:MediumSeaGreen\" >Only 18 left to go!</h1><img id=\"box\" src=\"img/prizes/coins.png\"></img><img id=\"box\" src=\"img/empty/redopenbox.png\"></img></div>","key_press":null,"trial_type":"html-keyboard-response","trial_index":20,"time_elapsed":366272,"internal_node_id":"0.0-17.0-1.1"},{"rt":886.8999999831431,"stimulus":"<p>Choose a box,</p>","button_pressed":0,"trial_type":"html-button-response","trial_index":21,"time_elapsed":367160,"internal_node_id":"0.0-17.0-0.2"},{"rate":0.3090774266159735,"trial_type":"html-keyboard-response","trial_index":22,"time_elapsed":367161,"internal_node_id":"0.0-17.0-1.2"},{"rt":null,"stimulus":"<div style=\"background-color:#ff7157\"><h1 style=\"background-color:Tomato\">Bad luck! There was no prize in the box!</h1><h1 style=\"background-color:Tomato\">Remember, you need to keep going until you have 20 prizes!</h1><img id=\"box\" src=\"img/sad/blueopenboxsadthumb.png\"></img></div>","key_press":null,"trial_type":"html-keyboard-response","trial_index":22,"time_elapsed":368662,"internal_node_id":"0.0-17.0-1.2"},{"view_history":"[{\"page_index\":0,\"viewing_time\":6797.795000020415}]","rt":6798.074999998789,"trial_type":"instructions","trial_index":23,"time_elapsed":375468,"internal_node_id":"0.0-18.0"},{"rt":1085.4299999773502,"stimulus":"<p>Choose a box,</p>","button_pressed":2,"trial_type":"html-button-response","trial_index":24,"time_elapsed":376555,"internal_node_id":"0.0-19.0-0.0"},{"rate":0.6974567947567526,"trial_type":"html-keyboard-response","trial_index":25,"time_elapsed":376556,"internal_node_id":"0.0-19.0-1.0"},{"rt":null,"stimulus":"<div style=\"background-color:#6dce98\"><h1 style=\"background-color:MediumSeaGreen\" >You won a prize! Well done!</h1><div style=\"background-color:#6dce98\"><h1 style=\"background-color:MediumSeaGreen\" >Only 19 left to go!</h1><img id=\"box\" src=\"img/prizes/yoyo.png\"></img><img id=\"box\" src=\"img/empty/purpleopenbox.png\"></img></div>","key_press":null,"trial_type":"html-keyboard-response","trial_index":25,"time_elapsed":378057,"internal_node_id":"0.0-19.0-1.0"},{"rt":126.66499998886138,"stimulus":"<p>Choose a box,</p>","button_pressed":2,"trial_type":"html-button-response","trial_index":26,"time_elapsed":378187,"internal_node_id":"0.0-19.1-0.1"},{"rate":0.6974567947567526,"trial_type":"html-keyboard-response","trial_index":27,"time_elapsed":378187,"internal_node_id":"0.0-19.1-1.1"},{"rt":null,"stimulus":"<div style=\"background-color:#ff7157\"><h1 style=\"background-color:Tomato\">Bad luck! There was no prize in the box!</h1><h1 style=\"background-color:Tomato\">Remember, you need to keep going until you have 20 prizes!</h1><img id=\"box\" src=\"img/sad/purpleopenboxsadthumb.png\"></img></div>","key_press":null,"trial_type":"html-keyboard-response","trial_index":27,"time_elapsed":379695,"internal_node_id":"0.0-19.1-1.1"},{"rt":904.7250000294298,"stimulus":"<p>Choose a box,</p>","button_pressed":1,"trial_type":"html-button-response","trial_index":28,"time_elapsed":380601,"internal_node_id":"0.0-19.2-0.2"},{"rate":0.32215715764092534,"trial_type":"html-keyboard-response","trial_index":29,"time_elapsed":380601,"internal_node_id":"0.0-19.2-1.2"},{"rt":null,"stimulus":"<div style=\"background-color:#6dce98\"><h1 style=\"background-color:MediumSeaGreen\" >You won a prize! Well done!</h1><div style=\"background-color:#6dce98\"><h1 style=\"background-color:MediumSeaGreen\" >Only 18 left to go!</h1><img id=\"box\" src=\"img/prizes/bear.png\"></img><img id=\"box\" src=\"img/empty/greenopenbox.png\"></img></div>","key_press":null,"trial_type":"html-keyboard-response","trial_index":29,"time_elapsed":382114,"internal_node_id":"0.0-19.2-1.2"},{"rt":1580.1600000122562,"stimulus":"<p>Choose a box,</p>","button_pressed":1,"trial_type":"html-button-response","trial_index":30,"time_elapsed":383695,"internal_node_id":"0.0-19.3-0.3"},{"rate":0.32215715764092534,"trial_type":"html-keyboard-response","trial_index":31,"time_elapsed":383695,"internal_node_id":"0.0-19.3-1.3"},{"rt":null,"stimulus":"<div style=\"background-color:#ff7157\"><h1 style=\"background-color:Tomato\">Bad luck! There was no prize in the box!</h1><h1 style=\"background-color:Tomato\">Remember, you need to keep going until you have 20 prizes!</h1><img id=\"box\" src=\"img/sad/greenopenboxsadthumb.png\"></img></div>","key_press":null,"trial_type":"html-keyboard-response","trial_index":31,"time_elapsed":385199,"internal_node_id":"0.0-19.3-1.3"},{"rt":382.2550000040792,"stimulus":"<p>Choose a box,</p>","button_pressed":1,"trial_type":"html-button-response","trial_index":32,"time_elapsed":385582,"internal_node_id":"0.0-19.4-0.4"},{"rate":0.32215715764092534,"trial_type":"html-keyboard-response","trial_index":33,"time_elapsed":385583,"internal_node_id":"0.0-19.4-1.4"},{"rt":null,"stimulus":"<div style=\"background-color:#6dce98\"><h1 style=\"background-color:MediumSeaGreen\" >You won a prize! Well done!</h1><div style=\"background-color:#6dce98\"><h1 style=\"background-color:MediumSeaGreen\" >Only 17 left to go!</h1><img id=\"box\" src=\"img/prizes/beachball.png\"></img><img id=\"box\" src=\"img/empty/greenopenbox.png\"></img></div>","key_press":null,"trial_type":"html-keyboard-response","trial_index":33,"time_elapsed":387084,"internal_node_id":"0.0-19.4-1.4"},{"rt":639.7649999707937,"stimulus":"<p>Choose a box,</p>","button_pressed":3,"trial_type":"html-button-response","trial_index":34,"time_elapsed":387725,"internal_node_id":"0.0-19.5-0.5"},{"rate":0.47665892573128865,"trial_type":"html-keyboard-response","trial_index":35,"time_elapsed":387726,"internal_node_id":"0.0-19.5-1.5"},{"rt":null,"stimulus":"<div style=\"background-color:#6dce98\"><h1 style=\"background-color:MediumSeaGreen\" >You won a prize! Well done!</h1><div style=\"background-color:#6dce98\"><h1 style=\"background-color:MediumSeaGreen\" >Only 16 left to go!</h1><img id=\"box\" src=\"img/prizes/beachball.png\"></img><img id=\"box\" src=\"img/empty/redopenbox.png\"></img></div>","key_press":null,"trial_type":"html-keyboard-response","trial_index":35,"time_elapsed":389229,"internal_node_id":"0.0-19.5-1.5"},{"rt":1476.4950000098906,"stimulus":"<p>Choose a box,</p>","button_pressed":0,"trial_type":"html-button-response","trial_index":36,"time_elapsed":390707,"internal_node_id":"0.0-19.6-0.6"},{"rate":0.13852703978808925,"trial_type":"html-keyboard-response","trial_index":37,"time_elapsed":390708,"internal_node_id":"0.0-19.6-1.6"},{"rt":null,"stimulus":"<div style=\"background-color:#ff7157\"><h1 style=\"background-color:Tomato\">Bad luck! There was no prize in the box!</h1><h1 style=\"background-color:Tomato\">Remember, you need to keep going until you have 20 prizes!</h1><img id=\"box\" src=\"img/sad/blueopenboxsadthumb.png\"></img></div>","key_press":null,"trial_type":"html-keyboard-response","trial_index":37,"time_elapsed":392209,"internal_node_id":"0.0-19.6-1.6"},{"rt":567.4899999867193,"stimulus":"<p>Choose a box,</p>","button_pressed":2,"trial_type":"html-button-response","trial_index":38,"time_elapsed":392778,"internal_node_id":"0.0-19.7-0.7"},{"rate":0.6974567947567526,"trial_type":"html-keyboard-response","trial_index":39,"time_elapsed":392779,"internal_node_id":"0.0-19.7-1.7"},{"rt":null,"stimulus":"<div style=\"background-color:#6dce98\"><h1 style=\"background-color:MediumSeaGreen\" >You won a prize! Well done!</h1><div style=\"background-color:#6dce98\"><h1 style=\"background-color:MediumSeaGreen\" >Only 15 left to go!</h1><img id=\"box\" src=\"img/prizes/beachball.png\"></img><img id=\"box\" src=\"img/empty/purpleopenbox.png\"></img></div>","key_press":null,"trial_type":"html-keyboard-response","trial_index":39,"time_elapsed":394280,"internal_node_id":"0.0-19.7-1.7"},{"rt":999.599999981001,"stimulus":"<p>Choose a box,</p>","button_pressed":1,"trial_type":"html-button-response","trial_index":40,"time_elapsed":395281,"internal_node_id":"0.0-19.8-0.8"},{"rate":0.32215715764092534,"trial_type":"html-keyboard-response","trial_index":41,"time_elapsed":395281,"internal_node_id":"0.0-19.8-1.8"},{"rt":null,"stimulus":"<div style=\"background-color:#6dce98\"><h1 style=\"background-color:MediumSeaGreen\" >You won a prize! Well done!</h1><div style=\"background-color:#6dce98\"><h1 style=\"background-color:MediumSeaGreen\" >Only 14 left to go!</h1><img id=\"box\" src=\"img/prizes/flowers.png\"></img><img id=\"box\" src=\"img/empty/greenopenbox.png\"></img></div>","key_press":null,"trial_type":"html-keyboard-response","trial_index":41,"time_elapsed":396784,"internal_node_id":"0.0-19.8-1.8"},{"rt":375.15999999595806,"stimulus":"<p>Choose a box,</p>","button_pressed":3,"trial_type":"html-button-response","trial_index":42,"time_elapsed":397160,"internal_node_id":"0.0-19.9-0.9"},{"rate":0.47665892573128865,"trial_type":"html-keyboard-response","trial_index":43,"time_elapsed":397160,"internal_node_id":"0.0-19.9-1.9"},{"rt":null,"stimulus":"<div style=\"background-color:#6dce98\"><h1 style=\"background-color:MediumSeaGreen\" >You won a prize! Well done!</h1><div style=\"background-color:#6dce98\"><h1 style=\"background-color:MediumSeaGreen\" >Only 13 left to go!</h1><img id=\"box\" src=\"img/prizes/ring.png\"></img><img id=\"box\" src=\"img/empty/redopenbox.png\"></img></div>","key_press":null,"trial_type":"html-keyboard-response","trial_index":43,"time_elapsed":398662,"internal_node_id":"0.0-19.9-1.9"},{"rt":430.8749999618158,"stimulus":"<p>Choose a box,</p>","button_pressed":0,"trial_type":"html-button-response","trial_index":44,"time_elapsed":399094,"internal_node_id":"0.0-19.10-0.10"},{"rate":0.13852703978808925,"trial_type":"html-keyboard-response","trial_index":45,"time_elapsed":399095,"internal_node_id":"0.0-19.10-1.10"},{"rt":null,"stimulus":"<div style=\"background-color:#ff7157\"><h1 style=\"background-color:Tomato\">Bad luck! There was no prize in the box!</h1><h1 style=\"background-color:Tomato\">Remember, you need to keep going until you have 20 prizes!</h1><img id=\"box\" src=\"img/sad/blueopenboxsadthumb.png\"></img></div>","key_press":null,"trial_type":"html-keyboard-response","trial_index":45,"time_elapsed":400596,"internal_node_id":"0.0-19.10-1.10"},{"rt":311.5000000107102,"stimulus":"<p>Choose a box,</p>","button_pressed":0,"trial_type":"html-button-response","trial_index":46,"time_elapsed":400909,"internal_node_id":"0.0-19.11-0.11"},{"rate":0.13852703978808925,"trial_type":"html-keyboard-response","trial_index":47,"time_elapsed":400909,"internal_node_id":"0.0-19.11-1.11"},{"rt":null,"stimulus":"<div style=\"background-color:#ff7157\"><h1 style=\"background-color:Tomato\">Bad luck! There was no prize in the box!</h1><h1 style=\"background-color:Tomato\">Remember, you need to keep going until you have 20 prizes!</h1><img id=\"box\" src=\"img/sad/blueopenboxsadthumb.png\"></img></div>","key_press":null,"trial_type":"html-keyboard-response","trial_index":47,"time_elapsed":402410,"internal_node_id":"0.0-19.11-1.11"},{"rt":928.1199999968521,"stimulus":"<p>Choose a box,</p>","button_pressed":1,"trial_type":"html-button-response","trial_index":48,"time_elapsed":403340,"internal_node_id":"0.0-19.12-0.12"},{"rate":0.32215715764092534,"trial_type":"html-keyboard-response","trial_index":49,"time_elapsed":403340,"internal_node_id":"0.0-19.12-1.12"},{"rt":null,"stimulus":"<div style=\"background-color:#6dce98\"><h1 style=\"background-color:MediumSeaGreen\" >You won a prize! Well done!</h1><div style=\"background-color:#6dce98\"><h1 style=\"background-color:MediumSeaGreen\" >Only 12 left to go!</h1><img id=\"box\" src=\"img/prizes/choc.png\"></img><img id=\"box\" src=\"img/empty/greenopenbox.png\"></img></div>","key_press":null,"trial_type":"html-keyboard-response","trial_index":49,"time_elapsed":404849,"internal_node_id":"0.0-19.12-1.12"},{"rt":9283.845000027213,"stimulus":"<p>Choose a box,</p>","button_pressed":3,"trial_type":"html-button-response","trial_index":50,"time_elapsed":414134,"internal_node_id":"0.0-19.13-0.13"},{"rate":0.47665892573128865,"trial_type":"html-keyboard-response","trial_index":51,"time_elapsed":414135,"internal_node_id":"0.0-19.13-1.13"},{"rt":null,"stimulus":"<div style=\"background-color:#ff7157\"><h1 style=\"background-color:Tomato\">Bad luck! There was no prize in the box!</h1><h1 style=\"background-color:Tomato\">Remember, you need to keep going until you have 20 prizes!</h1><img id=\"box\" src=\"img/sad/redopenboxsadthumb.png\"></img></div>","key_press":null,"trial_type":"html-keyboard-response","trial_index":51,"time_elapsed":415636,"internal_node_id":"0.0-19.13-1.13"},{"rt":479.73999998066574,"stimulus":"<p>Choose a box,</p>","button_pressed":1,"trial_type":"html-button-response","trial_index":52,"time_elapsed":416117,"internal_node_id":"0.0-19.14-0.14"},{"rate":0.32215715764092534,"trial_type":"html-keyboard-response","trial_index":53,"time_elapsed":416117,"internal_node_id":"0.0-19.14-1.14"},{"rt":null,"stimulus":"<div style=\"background-color:#ff7157\"><h1 style=\"background-color:Tomato\">Bad luck! There was no prize in the box!</h1><h1 style=\"background-color:Tomato\">Remember, you need to keep going until you have 20 prizes!</h1><img id=\"box\" src=\"img/sad/greenopenboxsadthumb.png\"></img></div>","key_press":null,"trial_type":"html-keyboard-response","trial_index":53,"time_elapsed":417618,"internal_node_id":"0.0-19.14-1.14"},{"rt":264.1899999580346,"stimulus":"<p>Choose a box,</p>","button_pressed":2,"trial_type":"html-button-response","trial_index":54,"time_elapsed":417884,"internal_node_id":"0.0-19.15-0.15"},{"rate":0.6974567947567526,"trial_type":"html-keyboard-response","trial_index":55,"time_elapsed":417884,"internal_node_id":"0.0-19.15-1.15"},{"rt":null,"stimulus":"<div style=\"background-color:#6dce98\"><h1 style=\"background-color:MediumSeaGreen\" >You won a prize! Well done!</h1><div style=\"background-color:#6dce98\"><h1 style=\"background-color:MediumSeaGreen\" >Only 11 left to go!</h1><img id=\"box\" src=\"img/prizes/duck.png\"></img><img id=\"box\" src=\"img/empty/purpleopenbox.png\"></img></div>","key_press":null,"trial_type":"html-keyboard-response","trial_index":55,"time_elapsed":419387,"internal_node_id":"0.0-19.15-1.15"},{"rt":598.6499999999069,"stimulus":"<p>Choose a box,</p>","button_pressed":3,"trial_type":"html-button-response","trial_index":56,"time_elapsed":419987,"internal_node_id":"0.0-19.16-0.16"},{"rate":0.47665892573128865,"trial_type":"html-keyboard-response","trial_index":57,"time_elapsed":419987,"internal_node_id":"0.0-19.16-1.16"},{"rt":null,"stimulus":"<div style=\"background-color:#6dce98\"><h1 style=\"background-color:MediumSeaGreen\" >You won a prize! Well done!</h1><div style=\"background-color:#6dce98\"><h1 style=\"background-color:MediumSeaGreen\" >Only 10 left to go!</h1><img id=\"box\" src=\"img/prizes/lolipop.png\"></img><img id=\"box\" src=\"img/empty/redopenbox.png\"></img></div>","key_press":null,"trial_type":"html-keyboard-response","trial_index":57,"time_elapsed":421489,"internal_node_id":"0.0-19.16-1.16"},{"rt":311.8549999780953,"stimulus":"<p>Choose a box,</p>","button_pressed":0,"trial_type":"html-button-response","trial_index":58,"time_elapsed":421802,"internal_node_id":"0.0-19.17-0.17"},{"rate":0.13852703978808925,"trial_type":"html-keyboard-response","trial_index":59,"time_elapsed":421803,"internal_node_id":"0.0-19.17-1.17"},{"rt":null,"stimulus":"<div style=\"background-color:#6dce98\"><h1 style=\"background-color:MediumSeaGreen\" >You won a prize! Well done!</h1><div style=\"background-color:#6dce98\"><h1 style=\"background-color:MediumSeaGreen\" >Only 9 left to go!</h1><img id=\"box\" src=\"img/prizes/coins.png\"></img><img id=\"box\" src=\"img/empty/blueopenbox.png\"></img></div>","key_press":null,"trial_type":"html-keyboard-response","trial_index":59,"time_elapsed":423304,"internal_node_id":"0.0-19.17-1.17"},{"rt":366.84500001138076,"stimulus":"<p>Choose a box,</p>","button_pressed":1,"trial_type":"html-button-response","trial_index":60,"time_elapsed":423673,"internal_node_id":"0.0-19.18-0.18"},{"rate":0.32215715764092534,"trial_type":"html-keyboard-response","trial_index":61,"time_elapsed":423673,"internal_node_id":"0.0-19.18-1.18"},{"rt":null,"stimulus":"<div style=\"background-color:#6dce98\"><h1 style=\"background-color:MediumSeaGreen\" >You won a prize! Well done!</h1><div style=\"background-color:#6dce98\"><h1 style=\"background-color:MediumSeaGreen\" >Only 8 left to go!</h1><img id=\"box\" src=\"img/prizes/duck.png\"></img><img id=\"box\" src=\"img/empty/greenopenbox.png\"></img></div>","key_press":null,"trial_type":"html-keyboard-response","trial_index":61,"time_elapsed":425174,"internal_node_id":"0.0-19.18-1.18"},{"rt":328.26000003842637,"stimulus":"<p>Choose a box,</p>","button_pressed":3,"trial_type":"html-button-response","trial_index":62,"time_elapsed":425504,"internal_node_id":"0.0-19.19-0.19"},{"rate":0.47665892573128865,"trial_type":"html-keyboard-response","trial_index":63,"time_elapsed":425504,"internal_node_id":"0.0-19.19-1.19"},{"rt":null,"stimulus":"<div style=\"background-color:#ff7157\"><h1 style=\"background-color:Tomato\">Bad luck! There was no prize in the box!</h1><h1 style=\"background-color:Tomato\">Remember, you need to keep going until you have 20 prizes!</h1><img id=\"box\" src=\"img/sad/redopenboxsadthumb.png\"></img></div>","key_press":null,"trial_type":"html-keyboard-response","trial_index":63,"time_elapsed":427006,"internal_node_id":"0.0-19.19-1.19"},{"rt":287.3850000323728,"stimulus":"<p>Choose a box,</p>","button_pressed":1,"trial_type":"html-button-response","trial_index":64,"time_elapsed":427295,"internal_node_id":"0.0-19.20-0.20"},{"rate":0.32215715764092534,"trial_type":"html-keyboard-response","trial_index":65,"time_elapsed":427295,"internal_node_id":"0.0-19.20-1.20"},{"rt":null,"stimulus":"<div style=\"background-color:#ff7157\"><h1 style=\"background-color:Tomato\">Bad luck! There was no prize in the box!</h1><h1 style=\"background-color:Tomato\">Remember, you need to keep going until you have 20 prizes!</h1><img id=\"box\" src=\"img/sad/greenopenboxsadthumb.png\"></img></div>","key_press":null,"trial_type":"html-keyboard-response","trial_index":65,"time_elapsed":428807,"internal_node_id":"0.0-19.20-1.20"},{"rt":939.9149999953806,"stimulus":"<p>Choose a box,</p>","button_pressed":2,"trial_type":"html-button-response","trial_index":66,"time_elapsed":429748,"internal_node_id":"0.0-19.21-0.21"},{"rate":0.6974567947567526,"trial_type":"html-keyboard-response","trial_index":67,"time_elapsed":429749,"internal_node_id":"0.0-19.21-1.21"},{"rt":null,"stimulus":"<div style=\"background-color:#6dce98\"><h1 style=\"background-color:MediumSeaGreen\" >You won a prize! Well done!</h1><div style=\"background-color:#6dce98\"><h1 style=\"background-color:MediumSeaGreen\" >Only 7 left to go!</h1><img id=\"box\" src=\"img/prizes/coins.png\"></img><img id=\"box\" src=\"img/empty/purpleopenbox.png\"></img></div>","key_press":null,"trial_type":"html-keyboard-response","trial_index":67,"time_elapsed":431256,"internal_node_id":"0.0-19.21-1.21"},{"rt":665.3500000247732,"stimulus":"<p>Choose a box,</p>","button_pressed":0,"trial_type":"html-button-response","trial_index":68,"time_elapsed":431923,"internal_node_id":"0.0-19.22-0.22"},{"rate":0.13852703978808925,"trial_type":"html-keyboard-response","trial_index":69,"time_elapsed":431924,"internal_node_id":"0.0-19.22-1.22"},{"rt":null,"stimulus":"<div style=\"background-color:#ff7157\"><h1 style=\"background-color:Tomato\">Bad luck! There was no prize in the box!</h1><h1 style=\"background-color:Tomato\">Remember, you need to keep going until you have 20 prizes!</h1><img id=\"box\" src=\"img/sad/blueopenboxsadthumb.png\"></img></div>","key_press":null,"trial_type":"html-keyboard-response","trial_index":69,"time_elapsed":433425,"internal_node_id":"0.0-19.22-1.22"},{"rt":551.5649999724701,"stimulus":"<p>Choose a box,</p>","button_pressed":1,"trial_type":"html-button-response","trial_index":70,"time_elapsed":433979,"internal_node_id":"0.0-19.23-0.23"},{"rate":0.32215715764092534,"trial_type":"html-keyboard-response","trial_index":71,"time_elapsed":433979,"internal_node_id":"0.0-19.23-1.23"},{"rt":null,"stimulus":"<div style=\"background-color:#ff7157\"><h1 style=\"background-color:Tomato\">Bad luck! There was no prize in the box!</h1><h1 style=\"background-color:Tomato\">Remember, you need to keep going until you have 20 prizes!</h1><img id=\"box\" src=\"img/sad/greenopenboxsadthumb.png\"></img></div>","key_press":null,"trial_type":"html-keyboard-response","trial_index":71,"time_elapsed":435481,"internal_node_id":"0.0-19.23-1.23"},{"rt":439.30999998701736,"stimulus":"<p>Choose a box,</p>","button_pressed":2,"trial_type":"html-button-response","trial_index":72,"time_elapsed":435921,"internal_node_id":"0.0-19.24-0.24"},{"rate":0.6974567947567526,"trial_type":"html-keyboard-response","trial_index":73,"time_elapsed":435922,"internal_node_id":"0.0-19.24-1.24"},{"rt":null,"stimulus":"<div style=\"background-color:#6dce98\"><h1 style=\"background-color:MediumSeaGreen\" >You won a prize! Well done!</h1><div style=\"background-color:#6dce98\"><h1 style=\"background-color:MediumSeaGreen\" >Only 6 left to go!</h1><img id=\"box\" src=\"img/prizes/choc.png\"></img><img id=\"box\" src=\"img/empty/purpleopenbox.png\"></img></div>","key_press":null,"trial_type":"html-keyboard-response","trial_index":73,"time_elapsed":437423,"internal_node_id":"0.0-19.24-1.24"},{"rt":535.5400000116788,"stimulus":"<p>Choose a box,</p>","button_pressed":3,"trial_type":"html-button-response","trial_index":74,"time_elapsed":437961,"internal_node_id":"0.0-19.25-0.25"},{"rate":0.47665892573128865,"trial_type":"html-keyboard-response","trial_index":75,"time_elapsed":437961,"internal_node_id":"0.0-19.25-1.25"},{"rt":null,"stimulus":"<div style=\"background-color:#6dce98\"><h1 style=\"background-color:MediumSeaGreen\" >You won a prize! Well done!</h1><div style=\"background-color:#6dce98\"><h1 style=\"background-color:MediumSeaGreen\" >Only 5 left to go!</h1><img id=\"box\" src=\"img/prizes/bear.png\"></img><img id=\"box\" src=\"img/empty/redopenbox.png\"></img></div>","key_press":null,"trial_type":"html-keyboard-response","trial_index":75,"time_elapsed":439473,"internal_node_id":"0.0-19.25-1.25"},{"rt":1284.1249999473803,"stimulus":"<p>Choose a box,</p>","button_pressed":1,"trial_type":"html-button-response","trial_index":76,"time_elapsed":440758,"internal_node_id":"0.0-19.26-0.26"},{"rate":0.32215715764092534,"trial_type":"html-keyboard-response","trial_index":77,"time_elapsed":440759,"internal_node_id":"0.0-19.26-1.26"},{"rt":null,"stimulus":"<div style=\"background-color:#ff7157\"><h1 style=\"background-color:Tomato\">Bad luck! There was no prize in the box!</h1><h1 style=\"background-color:Tomato\">Remember, you need to keep going until you have 20 prizes!</h1><img id=\"box\" src=\"img/sad/greenopenboxsadthumb.png\"></img></div>","key_press":null,"trial_type":"html-keyboard-response","trial_index":77,"time_elapsed":442261,"internal_node_id":"0.0-19.26-1.26"},{"rt":351.2199999531731,"stimulus":"<p>Choose a box,</p>","button_pressed":1,"trial_type":"html-button-response","trial_index":78,"time_elapsed":442613,"internal_node_id":"0.0-19.27-0.27"},{"rate":0.32215715764092534,"trial_type":"html-keyboard-response","trial_index":79,"time_elapsed":442616,"internal_node_id":"0.0-19.27-1.27"},{"rt":null,"stimulus":"<div style=\"background-color:#ff7157\"><h1 style=\"background-color:Tomato\">Bad luck! There was no prize in the box!</h1><h1 style=\"background-color:Tomato\">Remember, you need to keep going until you have 20 prizes!</h1><img id=\"box\" src=\"img/sad/greenopenboxsadthumb.png\"></img></div>","key_press":null,"trial_type":"html-keyboard-response","trial_index":79,"time_elapsed":444117,"internal_node_id":"0.0-19.27-1.27"},{"rt":197.3149999976158,"stimulus":"<p>Choose a box,</p>","button_pressed":3,"trial_type":"html-button-response","trial_index":80,"time_elapsed":444316,"internal_node_id":"0.0-19.28-0.28"},{"rate":0.47665892573128865,"trial_type":"html-keyboard-response","trial_index":81,"time_elapsed":444317,"internal_node_id":"0.0-19.28-1.28"},{"rt":null,"stimulus":"<div style=\"background-color:#ff7157\"><h1 style=\"background-color:Tomato\">Bad luck! There was no prize in the box!</h1><h1 style=\"background-color:Tomato\">Remember, you need to keep going until you have 20 prizes!</h1><img id=\"box\" src=\"img/sad/redopenboxsadthumb.png\"></img></div>","key_press":null,"trial_type":"html-keyboard-response","trial_index":81,"time_elapsed":445818,"internal_node_id":"0.0-19.28-1.28"},{"rt":543.839999998454,"stimulus":"<p>Choose a box,</p>","button_pressed":3,"trial_type":"html-button-response","trial_index":82,"time_elapsed":446363,"internal_node_id":"0.0-19.29-0.29"},{"rate":0.47665892573128865,"trial_type":"html-keyboard-response","trial_index":83,"time_elapsed":446364,"internal_node_id":"0.0-19.29-1.29"},{"rt":null,"stimulus":"<div style=\"background-color:#6dce98\"><h1 style=\"background-color:MediumSeaGreen\" >You won a prize! Well done!</h1><div style=\"background-color:#6dce98\"><h1 style=\"background-color:MediumSeaGreen\" >Only 4 left to go!</h1><img id=\"box\" src=\"img/prizes/lolipop.png\"></img><img id=\"box\" src=\"img/empty/redopenbox.png\"></img></div>","key_press":null,"trial_type":"html-keyboard-response","trial_index":83,"time_elapsed":447865,"internal_node_id":"0.0-19.29-1.29"},{"rt":232.0649999892339,"stimulus":"<p>Choose a box,</p>","button_pressed":0,"trial_type":"html-button-response","trial_index":84,"time_elapsed":448098,"internal_node_id":"0.0-19.30-0.30"},{"rate":0.13852703978808925,"trial_type":"html-keyboard-response","trial_index":85,"time_elapsed":448099,"internal_node_id":"0.0-19.30-1.30"},{"rt":null,"stimulus":"<div style=\"background-color:#ff7157\"><h1 style=\"background-color:Tomato\">Bad luck! There was no prize in the box!</h1><h1 style=\"background-color:Tomato\">Remember, you need to keep going until you have 20 prizes!</h1><img id=\"box\" src=\"img/sad/blueopenboxsadthumb.png\"></img></div>","key_press":null,"trial_type":"html-keyboard-response","trial_index":85,"time_elapsed":449599,"internal_node_id":"0.0-19.30-1.30"},{"rt":696.1349999764934,"stimulus":"<p>Choose a box,</p>","button_pressed":1,"trial_type":"html-button-response","trial_index":86,"time_elapsed":450297,"internal_node_id":"0.0-19.31-0.31"},{"rate":0.32215715764092534,"trial_type":"html-keyboard-response","trial_index":87,"time_elapsed":450298,"internal_node_id":"0.0-19.31-1.31"},{"rt":null,"stimulus":"<div style=\"background-color:#ff7157\"><h1 style=\"background-color:Tomato\">Bad luck! There was no prize in the box!</h1><h1 style=\"background-color:Tomato\">Remember, you need to keep going until you have 20 prizes!</h1><img id=\"box\" src=\"img/sad/greenopenboxsadthumb.png\"></img></div>","key_press":null,"trial_type":"html-keyboard-response","trial_index":87,"time_elapsed":451799,"internal_node_id":"0.0-19.31-1.31"},{"rt":423.4699999797158,"stimulus":"<p>Choose a box,</p>","button_pressed":2,"trial_type":"html-button-response","trial_index":88,"time_elapsed":452224,"internal_node_id":"0.0-19.32-0.32"},{"rate":0.6974567947567526,"trial_type":"html-keyboard-response","trial_index":89,"time_elapsed":452225,"internal_node_id":"0.0-19.32-1.32"},{"rt":null,"stimulus":"<div style=\"background-color:#6dce98\"><h1 style=\"background-color:MediumSeaGreen\" >You won a prize! Well done!</h1><div style=\"background-color:#6dce98\"><h1 style=\"background-color:MediumSeaGreen\" >Only 3 left to go!</h1><img id=\"box\" src=\"img/prizes/duck.png\"></img><img id=\"box\" src=\"img/empty/purpleopenbox.png\"></img></div>","key_press":null,"trial_type":"html-keyboard-response","trial_index":89,"time_elapsed":453726,"internal_node_id":"0.0-19.32-1.32"},{"rt":103.82999997818843,"stimulus":"<p>Choose a box,</p>","button_pressed":3,"trial_type":"html-button-response","trial_index":90,"time_elapsed":453831,"internal_node_id":"0.0-19.33-0.33"},{"rate":0.47665892573128865,"trial_type":"html-keyboard-response","trial_index":91,"time_elapsed":453832,"internal_node_id":"0.0-19.33-1.33"},{"rt":null,"stimulus":"<div style=\"background-color:#6dce98\"><h1 style=\"background-color:MediumSeaGreen\" >You won a prize! Well done!</h1><div style=\"background-color:#6dce98\"><h1 style=\"background-color:MediumSeaGreen\" >Only 2 left to go!</h1><img id=\"box\" src=\"img/prizes/duck.png\"></img><img id=\"box\" src=\"img/empty/redopenbox.png\"></img></div>","key_press":null,"trial_type":"html-keyboard-response","trial_index":91,"time_elapsed":455333,"internal_node_id":"0.0-19.33-1.33"},{"rt":103.8399999961257,"stimulus":"<p>Choose a box,</p>","button_pressed":0,"trial_type":"html-button-response","trial_index":92,"time_elapsed":455439,"internal_node_id":"0.0-19.34-0.34"},{"rate":0.13852703978808925,"trial_type":"html-keyboard-response","trial_index":93,"time_elapsed":455439,"internal_node_id":"0.0-19.34-1.34"},{"rt":null,"stimulus":"<div style=\"background-color:#ff7157\"><h1 style=\"background-color:Tomato\">Bad luck! There was no prize in the box!</h1><h1 style=\"background-color:Tomato\">Remember, you need to keep going until you have 20 prizes!</h1><img id=\"box\" src=\"img/sad/blueopenboxsadthumb.png\"></img></div>","key_press":null,"trial_type":"html-keyboard-response","trial_index":93,"time_elapsed":456941,"internal_node_id":"0.0-19.34-1.34"},{"rt":679.0899999905378,"stimulus":"<p>Choose a box,</p>","button_pressed":2,"trial_type":"html-button-response","trial_index":94,"time_elapsed":457621,"internal_node_id":"0.0-19.35-0.35"},{"rate":0.6974567947567526,"trial_type":"html-keyboard-response","trial_index":95,"time_elapsed":457622,"internal_node_id":"0.0-19.35-1.35"},{"rt":null,"stimulus":"<div style=\"background-color:#ff7157\"><h1 style=\"background-color:Tomato\">Bad luck! There was no prize in the box!</h1><h1 style=\"background-color:Tomato\">Remember, you need to keep going until you have 20 prizes!</h1><img id=\"box\" src=\"img/sad/purpleopenboxsadthumb.png\"></img></div>","key_press":null,"trial_type":"html-keyboard-response","trial_index":95,"time_elapsed":459130,"internal_node_id":"0.0-19.35-1.35"},{"rt":160.53500003181398,"stimulus":"<p>Choose a box,</p>","button_pressed":1,"trial_type":"html-button-response","trial_index":96,"time_elapsed":459292,"internal_node_id":"0.0-19.36-0.36"},{"rate":0.32215715764092534,"trial_type":"html-keyboard-response","trial_index":97,"time_elapsed":459292,"internal_node_id":"0.0-19.36-1.36"},{"rt":null,"stimulus":"<div style=\"background-color:#ff7157\"><h1 style=\"background-color:Tomato\">Bad luck! There was no prize in the box!</h1><h1 style=\"background-color:Tomato\">Remember, you need to keep going until you have 20 prizes!</h1><img id=\"box\" src=\"img/sad/greenopenboxsadthumb.png\"></img></div>","key_press":null,"trial_type":"html-keyboard-response","trial_index":97,"time_elapsed":460794,"internal_node_id":"0.0-19.36-1.36"},{"rt":142.1449999907054,"stimulus":"<p>Choose a box,</p>","button_pressed":0,"trial_type":"html-button-response","trial_index":98,"time_elapsed":460939,"internal_node_id":"0.0-19.37-0.37"},{"rate":0.13852703978808925,"trial_type":"html-keyboard-response","trial_index":99,"time_elapsed":460940,"internal_node_id":"0.0-19.37-1.37"},{"rt":null,"stimulus":"<div style=\"background-color:#ff7157\"><h1 style=\"background-color:Tomato\">Bad luck! There was no prize in the box!</h1><h1 style=\"background-color:Tomato\">Remember, you need to keep going until you have 20 prizes!</h1><img id=\"box\" src=\"img/sad/blueopenboxsadthumb.png\"></img></div>","key_press":null,"trial_type":"html-keyboard-response","trial_index":99,"time_elapsed":462448,"internal_node_id":"0.0-19.37-1.37"},{"rt":145.1849999721162,"stimulus":"<p>Choose a box,</p>","button_pressed":3,"trial_type":"html-button-response","trial_index":100,"time_elapsed":462594,"internal_node_id":"0.0-19.38-0.38"},{"rate":0.47665892573128865,"trial_type":"html-keyboard-response","trial_index":101,"time_elapsed":462595,"internal_node_id":"0.0-19.38-1.38"},{"rt":null,"stimulus":"<div style=\"background-color:#6dce98\"><h1 style=\"background-color:MediumSeaGreen\" >You won a prize! Well done!</h1><div style=\"background-color:#6dce98\"><h1 style=\"background-color:MediumSeaGreen\" >Only 1 left to go!</h1><img id=\"box\" src=\"img/prizes/yoyo.png\"></img><img id=\"box\" src=\"img/empty/redopenbox.png\"></img></div>","key_press":null,"trial_type":"html-keyboard-response","trial_index":101,"time_elapsed":464096,"internal_node_id":"0.0-19.38-1.38"},{"rt":1207.0899999816902,"stimulus":"<p>Choose a box,</p>","button_pressed":2,"trial_type":"html-button-response","trial_index":102,"time_elapsed":465304,"internal_node_id":"0.0-19.39-0.39"},{"rate":0.6974567947567526,"trial_type":"html-keyboard-response","trial_index":103,"time_elapsed":465305,"internal_node_id":"0.0-19.39-1.39"},{"rt":null,"stimulus":"<div style=\"background-color:#6dce98\"><h1 style=\"background-color:MediumSeaGreen\" >You won a prize! Well done!</h1><div style=\"background-color:#6dce98\"><h1 style=\"background-color:MediumSeaGreen\" >Only 0 left to go!</h1><img id=\"box\" src=\"img/prizes/coins.png\"></img><img id=\"box\" src=\"img/empty/purpleopenbox.png\"></img></div>","key_press":null,"trial_type":"html-keyboard-response","trial_index":103,"time_elapsed":466819,"internal_node_id":"0.0-19.39-1.39"},{"rt":25221.459999971557,"responses":"{\"Q0\":\"didn't understand the second part, but fine.\",\"Q1\":\"no real strategy\"}","trial_type":"survey-text","trial_index":104,"time_elapsed":492050,"internal_node_id":"0.0-20.0"}]