[{"view_history":"[{\"page_index\":0,\"viewing_time\":34092.384999850765},{\"page_index\":1,\"viewing_time\":42515.92500018887},{\"page_index\":2,\"viewing_time\":23924.30999991484},{\"page_index\":3,\"viewing_time\":15856.979999924079},{\"page_index\":4,\"viewing_time\":17111.585000064224},{\"page_index\":5,\"viewing_time\":21102.650000015274}]","rt":154605.13499984518,"trial_type":"instructions","trial_index":0,"time_elapsed":154610,"internal_node_id":"0.0-0.0"},{"rt":13435.640000039712,"responses":"{\"Q0\":\"Yes\",\"Q1\":\"Yes\",\"Q2\":\"Yes\"}","question_order":"[0,1,2]","trial_type":"survey-multi-choice","trial_index":1,"time_elapsed":168049,"internal_node_id":"0.0-1.0-0.0"},{"rt":12607.700000051409,"responses":"{\"Q0\":\"Yes\",\"Q1\":\"Yes\",\"Q2\":\"Yes\"}","question_order":"[0,1,2]","trial_type":"survey-multi-choice","trial_index":2,"time_elapsed":180662,"internal_node_id":"0.0-2.0-0.0"},{"rt":6602.560000028461,"responses":"{\"Q0\":\"5fe351ea23b19bfbb605aa8e\"}","trial_type":"survey-text","trial_index":3,"time_elapsed":187276,"internal_node_id":"0.0-3.0"},{"rt":13390.73000010103,"responses":"{\"Q0\":\"Female\",\"Q1\":\"18-25\"}","question_order":"[0,1]","trial_type":"survey-multi-choice","trial_index":4,"time_elapsed":200670,"internal_node_id":"0.0-4.0"},{"rt":19929.00999984704,"responses":"{\"Q0\":\"Efexor\"}","trial_type":"survey-text","trial_index":5,"time_elapsed":220611,"internal_node_id":"0.0-5.0"},{"view_history":"[{\"page_index\":0,\"viewing_time\":5364.629999967292}]","rt":5365.250000031665,"trial_type":"instructions","trial_index":6,"time_elapsed":225979,"internal_node_id":"0.0-6.0"},{"rt":17073.74500017613,"responses":"{\"Interested\":0,\"Distressed\":3,\"Excited\":1,\"Upset\":3}","question_order":"[0,1,2,3]","trial_type":"survey-likert","trial_index":7,"time_elapsed":243057,"internal_node_id":"0.0-7.0"},{"rt":20019.719999982044,"responses":"{\"Strong\":1,\"Guilty\":0,\"Scared\":2,\"Hostile\":2}","question_order":"[0,1,2,3]","trial_type":"survey-likert","trial_index":8,"time_elapsed":263081,"internal_node_id":"0.0-8.0"},{"rt":21972.025000024587,"responses":"{\"Enthusiastic\":1,\"Proud\":1,\"Irritable\":4,\"Alert\":0}","question_order":"[0,1,2,3]","trial_type":"survey-likert","trial_index":9,"time_elapsed":285057,"internal_node_id":"0.0-9.0"},{"rt":19869.13500004448,"responses":"{\"Ashamed\":0,\"Inspired\":1,\"Nervous\":4,\"Determined\":1}","question_order":"[0,1,2,3]","trial_type":"survey-likert","trial_index":10,"time_elapsed":304931,"internal_node_id":"0.0-10.0"},{"rt":15281.635000137612,"responses":"{\"Attentive\":1,\"Jittery\":3,\"Active\":0,\"Afraid\":2}","question_order":"[0,1,2,3]","trial_type":"survey-likert","trial_index":11,"time_elapsed":320217,"internal_node_id":"0.0-11.0"},{"rt":24652.469999855384,"responses":"{\"Q0\":3,\"Q1\":3,\"Q2\":3,\"Q3\":3}","question_order":"[0,1,2,3]","trial_type":"survey-likert","trial_index":12,"time_elapsed":344874,"internal_node_id":"0.0-12.0"},{"rt":28056.224999949336,"responses":"{\"Q0\":1,\"Q1\":3,\"Q2\":3,\"Q3\":0}","question_order":"[0,1,2,3]","trial_type":"survey-likert","trial_index":13,"time_elapsed":372934,"internal_node_id":"0.0-13.0"},{"rt":30897.705000126734,"responses":"{\"Q0\":3,\"Q1\":2,\"Q2\":1,\"Q3\":2}","question_order":"[0,1,2,3]","trial_type":"survey-likert","trial_index":14,"time_elapsed":403838,"internal_node_id":"0.0-14.0"},{"rt":14367.175000021234,"responses":"{\"Q0\":1,\"Q1\":3,\"Q2\":3}","question_order":"[0,1,2]","trial_type":"survey-likert","trial_index":15,"time_elapsed":418209,"internal_node_id":"0.0-15.0"},{"view_history":"[{\"page_index\":0,\"viewing_time\":3904.579999856651},{\"page_index\":1,\"viewing_time\":10168.420000001788},{\"page_index\":2,\"viewing_time\":13785.5250001885}]","rt":27859.03499997221,"trial_type":"instructions","trial_index":16,"time_elapsed":446072,"internal_node_id":"0.0-16.0"},{"rt":1593.6950000468642,"stimulus":"<p>Choose a box,</p>","button_pressed":3,"trial_type":"html-button-response","trial_index":17,"time_elapsed":447675,"internal_node_id":"0.0-17.0-0.0"},{"rate":0.24284300261721525,"trial_type":"html-keyboard-response","trial_index":18,"time_elapsed":447676,"internal_node_id":"0.0-17.0-1.0"},{"rt":null,"stimulus":"<div style=\"background-color:#ff7157\"><h1 style=\"background-color:Tomato\">Bad luck! There was no prize in the box!</h1><h1 style=\"background-color:Tomato\">Remember, you need to keep going until you have 20 prizes!</h1><img id=\"box\" src=\"img/sad/redopenboxsadthumb.png\"></img></div>","key_press":null,"trial_type":"html-keyboard-response","trial_index":18,"time_elapsed":449182,"internal_node_id":"0.0-17.0-1.0"},{"rt":1349.4250001385808,"stimulus":"<p>Choose a box,</p>","button_pressed":2,"trial_type":"html-button-response","trial_index":19,"time_elapsed":450536,"internal_node_id":"0.0-17.0-0.1"},{"rate":0.6029961965765128,"trial_type":"html-keyboard-response","trial_index":20,"time_elapsed":450536,"internal_node_id":"0.0-17.0-1.1"},{"rt":null,"stimulus":"<div style=\"background-color:#6dce98\"><h1 style=\"background-color:MediumSeaGreen\" >You won a prize! Well done!</h1><div style=\"background-color:#6dce98\"><h1 style=\"background-color:MediumSeaGreen\" >Only 19 left to go!</h1><img id=\"box\" src=\"img/prizes/ring.png\"></img><img id=\"box\" src=\"img/empty/purpleopenbox.png\"></img></div>","key_press":null,"trial_type":"html-keyboard-response","trial_index":20,"time_elapsed":452047,"internal_node_id":"0.0-17.0-1.1"},{"rt":1279.3900000397116,"stimulus":"<p>Choose a box,</p>","button_pressed":1,"trial_type":"html-button-response","trial_index":21,"time_elapsed":453331,"internal_node_id":"0.0-17.0-0.2"},{"rate":0.35158750795742505,"trial_type":"html-keyboard-response","trial_index":22,"time_elapsed":453335,"internal_node_id":"0.0-17.0-1.2"},{"rt":null,"stimulus":"<div style=\"background-color:#ff7157\"><h1 style=\"background-color:Tomato\">Bad luck! There was no prize in the box!</h1><h1 style=\"background-color:Tomato\">Remember, you need to keep going until you have 20 prizes!</h1><img id=\"box\" src=\"img/sad/greenopenboxsadthumb.png\"></img></div>","key_press":null,"trial_type":"html-keyboard-response","trial_index":22,"time_elapsed":454839,"internal_node_id":"0.0-17.0-1.2"},{"view_history":"[{\"page_index\":0,\"viewing_time\":4283.990000141785}]","rt":4311.60999997519,"trial_type":"instructions","trial_index":23,"time_elapsed":459161,"internal_node_id":"0.0-18.0"},{"rt":1341.3499998860061,"stimulus":"<p>Choose a box,</p>","button_pressed":3,"trial_type":"html-button-response","trial_index":24,"time_elapsed":460506,"internal_node_id":"0.0-19.0-0.0"},{"rate":0.753295858549171,"trial_type":"html-keyboard-response","trial_index":25,"time_elapsed":460506,"internal_node_id":"0.0-19.0-1.0"},{"rt":null,"stimulus":"<div style=\"background-color:#6dce98\"><h1 style=\"background-color:MediumSeaGreen\" >You won a prize! Well done!</h1><div style=\"background-color:#6dce98\"><h1 style=\"background-color:MediumSeaGreen\" >Only 19 left to go!</h1><img id=\"box\" src=\"img/prizes/duck.png\"></img><img id=\"box\" src=\"img/empty/redopenbox.png\"></img></div>","key_press":null,"trial_type":"html-keyboard-response","trial_index":25,"time_elapsed":462010,"internal_node_id":"0.0-19.0-1.0"},{"rt":1696.4749998878688,"stimulus":"<p>Choose a box,</p>","button_pressed":3,"trial_type":"html-button-response","trial_index":26,"time_elapsed":463709,"internal_node_id":"0.0-19.1-0.1"},{"rate":0.753295858549171,"trial_type":"html-keyboard-response","trial_index":27,"time_elapsed":463709,"internal_node_id":"0.0-19.1-1.1"},{"rt":null,"stimulus":"<div style=\"background-color:#ff7157\"><h1 style=\"background-color:Tomato\">Bad luck! There was no prize in the box!</h1><h1 style=\"background-color:Tomato\">Remember, you need to keep going until you have 20 prizes!</h1><img id=\"box\" src=\"img/sad/redopenboxsadthumb.png\"></img></div>","key_press":null,"trial_type":"html-keyboard-response","trial_index":27,"time_elapsed":465211,"internal_node_id":"0.0-19.1-1.1"},{"rt":1095.6399999558926,"stimulus":"<p>Choose a box,</p>","button_pressed":1,"trial_type":"html-button-response","trial_index":28,"time_elapsed":466309,"internal_node_id":"0.0-19.2-0.2"},{"rate":0.14761149180489178,"trial_type":"html-keyboard-response","trial_index":29,"time_elapsed":466310,"internal_node_id":"0.0-19.2-1.2"},{"rt":null,"stimulus":"<div style=\"background-color:#ff7157\"><h1 style=\"background-color:Tomato\">Bad luck! There was no prize in the box!</h1><h1 style=\"background-color:Tomato\">Remember, you need to keep going until you have 20 prizes!</h1><img id=\"box\" src=\"img/sad/greenopenboxsadthumb.png\"></img></div>","key_press":null,"trial_type":"html-keyboard-response","trial_index":29,"time_elapsed":467823,"internal_node_id":"0.0-19.2-1.2"},{"rt":888.0449999123812,"stimulus":"<p>Choose a box,</p>","button_pressed":0,"trial_type":"html-button-response","trial_index":30,"time_elapsed":468714,"internal_node_id":"0.0-19.3-0.3"},{"rate":0.5554508570563271,"trial_type":"html-keyboard-response","trial_index":31,"time_elapsed":468716,"internal_node_id":"0.0-19.3-1.3"},{"rt":null,"stimulus":"<div style=\"background-color:#6dce98\"><h1 style=\"background-color:MediumSeaGreen\" >You won a prize! Well done!</h1><div style=\"background-color:#6dce98\"><h1 style=\"background-color:MediumSeaGreen\" >Only 18 left to go!</h1><img id=\"box\" src=\"img/prizes/lolipop.png\"></img><img id=\"box\" src=\"img/empty/blueopenbox.png\"></img></div>","key_press":null,"trial_type":"html-keyboard-response","trial_index":31,"time_elapsed":470226,"internal_node_id":"0.0-19.3-1.3"},{"rt":1198.6650000326335,"stimulus":"<p>Choose a box,</p>","button_pressed":2,"trial_type":"html-button-response","trial_index":32,"time_elapsed":471428,"internal_node_id":"0.0-19.4-0.4"},{"rate":0.36274851119663826,"trial_type":"html-keyboard-response","trial_index":33,"time_elapsed":471428,"internal_node_id":"0.0-19.4-1.4"},{"rt":null,"stimulus":"<div style=\"background-color:#ff7157\"><h1 style=\"background-color:Tomato\">Bad luck! There was no prize in the box!</h1><h1 style=\"background-color:Tomato\">Remember, you need to keep going until you have 20 prizes!</h1><img id=\"box\" src=\"img/sad/purpleopenboxsadthumb.png\"></img></div>","key_press":null,"trial_type":"html-keyboard-response","trial_index":33,"time_elapsed":472933,"internal_node_id":"0.0-19.4-1.4"},{"rt":885.4750001337379,"stimulus":"<p>Choose a box,</p>","button_pressed":3,"trial_type":"html-button-response","trial_index":34,"time_elapsed":473822,"internal_node_id":"0.0-19.5-0.5"},{"rate":0.753295858549171,"trial_type":"html-keyboard-response","trial_index":35,"time_elapsed":473822,"internal_node_id":"0.0-19.5-1.5"},{"rt":null,"stimulus":"<div style=\"background-color:#ff7157\"><h1 style=\"background-color:Tomato\">Bad luck! There was no prize in the box!</h1><h1 style=\"background-color:Tomato\">Remember, you need to keep going until you have 20 prizes!</h1><img id=\"box\" src=\"img/sad/redopenboxsadthumb.png\"></img></div>","key_press":null,"trial_type":"html-keyboard-response","trial_index":35,"time_elapsed":475326,"internal_node_id":"0.0-19.5-1.5"},{"rt":846.7349999118596,"stimulus":"<p>Choose a box,</p>","button_pressed":3,"trial_type":"html-button-response","trial_index":36,"time_elapsed":476176,"internal_node_id":"0.0-19.6-0.6"},{"rate":0.753295858549171,"trial_type":"html-keyboard-response","trial_index":37,"time_elapsed":476176,"internal_node_id":"0.0-19.6-1.6"},{"rt":null,"stimulus":"<div style=\"background-color:#ff7157\"><h1 style=\"background-color:Tomato\">Bad luck! There was no prize in the box!</h1><h1 style=\"background-color:Tomato\">Remember, you need to keep going until you have 20 prizes!</h1><img id=\"box\" src=\"img/sad/redopenboxsadthumb.png\"></img></div>","key_press":null,"trial_type":"html-keyboard-response","trial_index":37,"time_elapsed":477682,"internal_node_id":"0.0-19.6-1.6"},{"rt":957.979999948293,"stimulus":"<p>Choose a box,</p>","button_pressed":1,"trial_type":"html-button-response","trial_index":38,"time_elapsed":478643,"internal_node_id":"0.0-19.7-0.7"},{"rate":0.14761149180489178,"trial_type":"html-keyboard-response","trial_index":39,"time_elapsed":478644,"internal_node_id":"0.0-19.7-1.7"},{"rt":null,"stimulus":"<div style=\"background-color:#6dce98\"><h1 style=\"background-color:MediumSeaGreen\" >You won a prize! Well done!</h1><div style=\"background-color:#6dce98\"><h1 style=\"background-color:MediumSeaGreen\" >Only 17 left to go!</h1><img id=\"box\" src=\"img/prizes/duck.png\"></img><img id=\"box\" src=\"img/empty/greenopenbox.png\"></img></div>","key_press":null,"trial_type":"html-keyboard-response","trial_index":39,"time_elapsed":480154,"internal_node_id":"0.0-19.7-1.7"},{"rt":685.50999998115,"stimulus":"<p>Choose a box,</p>","button_pressed":1,"trial_type":"html-button-response","trial_index":40,"time_elapsed":480843,"internal_node_id":"0.0-19.8-0.8"},{"rate":0.14761149180489178,"trial_type":"html-keyboard-response","trial_index":41,"time_elapsed":480843,"internal_node_id":"0.0-19.8-1.8"},{"rt":null,"stimulus":"<div style=\"background-color:#ff7157\"><h1 style=\"background-color:Tomato\">Bad luck! There was no prize in the box!</h1><h1 style=\"background-color:Tomato\">Remember, you need to keep going until you have 20 prizes!</h1><img id=\"box\" src=\"img/sad/greenopenboxsadthumb.png\"></img></div>","key_press":null,"trial_type":"html-keyboard-response","trial_index":41,"time_elapsed":482355,"internal_node_id":"0.0-19.8-1.8"},{"rt":603.7750001996756,"stimulus":"<p>Choose a box,</p>","button_pressed":1,"trial_type":"html-button-response","trial_index":42,"time_elapsed":482961,"internal_node_id":"0.0-19.9-0.9"},{"rate":0.14761149180489178,"trial_type":"html-keyboard-response","trial_index":43,"time_elapsed":482961,"internal_node_id":"0.0-19.9-1.9"},{"rt":null,"stimulus":"<div style=\"background-color:#ff7157\"><h1 style=\"background-color:Tomato\">Bad luck! There was no prize in the box!</h1><h1 style=\"background-color:Tomato\">Remember, you need to keep going until you have 20 prizes!</h1><img id=\"box\" src=\"img/sad/greenopenboxsadthumb.png\"></img></div>","key_press":null,"trial_type":"html-keyboard-response","trial_index":43,"time_elapsed":484472,"internal_node_id":"0.0-19.9-1.9"},{"rt":829.6299998182803,"stimulus":"<p>Choose a box,</p>","button_pressed":0,"trial_type":"html-button-response","trial_index":44,"time_elapsed":485304,"internal_node_id":"0.0-19.10-0.10"},{"rate":0.5554508570563271,"trial_type":"html-keyboard-response","trial_index":45,"time_elapsed":485305,"internal_node_id":"0.0-19.10-1.10"},{"rt":null,"stimulus":"<div style=\"background-color:#ff7157\"><h1 style=\"background-color:Tomato\">Bad luck! There was no prize in the box!</h1><h1 style=\"background-color:Tomato\">Remember, you need to keep going until you have 20 prizes!</h1><img id=\"box\" src=\"img/sad/blueopenboxsadthumb.png\"></img></div>","key_press":null,"trial_type":"html-keyboard-response","trial_index":45,"time_elapsed":486807,"internal_node_id":"0.0-19.10-1.10"},{"rt":1165.4999998863786,"stimulus":"<p>Choose a box,</p>","button_pressed":3,"trial_type":"html-button-response","trial_index":46,"time_elapsed":487976,"internal_node_id":"0.0-19.11-0.11"},{"rate":0.753295858549171,"trial_type":"html-keyboard-response","trial_index":47,"time_elapsed":487976,"internal_node_id":"0.0-19.11-1.11"},{"rt":null,"stimulus":"<div style=\"background-color:#6dce98\"><h1 style=\"background-color:MediumSeaGreen\" >You won a prize! Well done!</h1><div style=\"background-color:#6dce98\"><h1 style=\"background-color:MediumSeaGreen\" >Only 16 left to go!</h1><img id=\"box\" src=\"img/prizes/beachball.png\"></img><img id=\"box\" src=\"img/empty/redopenbox.png\"></img></div>","key_press":null,"trial_type":"html-keyboard-response","trial_index":47,"time_elapsed":489479,"internal_node_id":"0.0-19.11-1.11"},{"rt":938.7299998197705,"stimulus":"<p>Choose a box,</p>","button_pressed":2,"trial_type":"html-button-response","trial_index":48,"time_elapsed":490422,"internal_node_id":"0.0-19.12-0.12"},{"rate":0.36274851119663826,"trial_type":"html-keyboard-response","trial_index":49,"time_elapsed":490422,"internal_node_id":"0.0-19.12-1.12"},{"rt":null,"stimulus":"<div style=\"background-color:#ff7157\"><h1 style=\"background-color:Tomato\">Bad luck! There was no prize in the box!</h1><h1 style=\"background-color:Tomato\">Remember, you need to keep going until you have 20 prizes!</h1><img id=\"box\" src=\"img/sad/purpleopenboxsadthumb.png\"></img></div>","key_press":null,"trial_type":"html-keyboard-response","trial_index":49,"time_elapsed":491935,"internal_node_id":"0.0-19.12-1.12"},{"rt":847.81499998644,"stimulus":"<p>Choose a box,</p>","button_pressed":2,"trial_type":"html-button-response","trial_index":50,"time_elapsed":492785,"internal_node_id":"0.0-19.13-0.13"},{"rate":0.36274851119663826,"trial_type":"html-keyboard-response","trial_index":51,"time_elapsed":492786,"internal_node_id":"0.0-19.13-1.13"},{"rt":null,"stimulus":"<div style=\"background-color:#ff7157\"><h1 style=\"background-color:Tomato\">Bad luck! There was no prize in the box!</h1><h1 style=\"background-color:Tomato\">Remember, you need to keep going until you have 20 prizes!</h1><img id=\"box\" src=\"img/sad/purpleopenboxsadthumb.png\"></img></div>","key_press":null,"trial_type":"html-keyboard-response","trial_index":51,"time_elapsed":494292,"internal_node_id":"0.0-19.13-1.13"},{"rt":588.2649999111891,"stimulus":"<p>Choose a box,</p>","button_pressed":2,"trial_type":"html-button-response","trial_index":52,"time_elapsed":494883,"internal_node_id":"0.0-19.14-0.14"},{"rate":0.36274851119663826,"trial_type":"html-keyboard-response","trial_index":53,"time_elapsed":494883,"internal_node_id":"0.0-19.14-1.14"},{"rt":null,"stimulus":"<div style=\"background-color:#6dce98\"><h1 style=\"background-color:MediumSeaGreen\" >You won a prize! Well done!</h1><div style=\"background-color:#6dce98\"><h1 style=\"background-color:MediumSeaGreen\" >Only 15 left to go!</h1><img id=\"box\" src=\"img/prizes/coins.png\"></img><img id=\"box\" src=\"img/empty/purpleopenbox.png\"></img></div>","key_press":null,"trial_type":"html-keyboard-response","trial_index":53,"time_elapsed":496401,"internal_node_id":"0.0-19.14-1.14"},{"rt":1283.3499999251217,"stimulus":"<p>Choose a box,</p>","button_pressed":1,"trial_type":"html-button-response","trial_index":54,"time_elapsed":497688,"internal_node_id":"0.0-19.15-0.15"},{"rate":0.14761149180489178,"trial_type":"html-keyboard-response","trial_index":55,"time_elapsed":497689,"internal_node_id":"0.0-19.15-1.15"},{"rt":null,"stimulus":"<div style=\"background-color:#ff7157\"><h1 style=\"background-color:Tomato\">Bad luck! There was no prize in the box!</h1><h1 style=\"background-color:Tomato\">Remember, you need to keep going until you have 20 prizes!</h1><img id=\"box\" src=\"img/sad/greenopenboxsadthumb.png\"></img></div>","key_press":null,"trial_type":"html-keyboard-response","trial_index":55,"time_elapsed":499191,"internal_node_id":"0.0-19.15-1.15"},{"rt":898.5900001134723,"stimulus":"<p>Choose a box,</p>","button_pressed":0,"trial_type":"html-button-response","trial_index":56,"time_elapsed":500092,"internal_node_id":"0.0-19.16-0.16"},{"rate":0.5554508570563271,"trial_type":"html-keyboard-response","trial_index":57,"time_elapsed":500092,"internal_node_id":"0.0-19.16-1.16"},{"rt":null,"stimulus":"<div style=\"background-color:#ff7157\"><h1 style=\"background-color:Tomato\">Bad luck! There was no prize in the box!</h1><h1 style=\"background-color:Tomato\">Remember, you need to keep going until you have 20 prizes!</h1><img id=\"box\" src=\"img/sad/blueopenboxsadthumb.png\"></img></div>","key_press":null,"trial_type":"html-keyboard-response","trial_index":57,"time_elapsed":501598,"internal_node_id":"0.0-19.16-1.16"},{"rt":588.9599998481572,"stimulus":"<p>Choose a box,</p>","button_pressed":3,"trial_type":"html-button-response","trial_index":58,"time_elapsed":502189,"internal_node_id":"0.0-19.17-0.17"},{"rate":0.753295858549171,"trial_type":"html-keyboard-response","trial_index":59,"time_elapsed":502190,"internal_node_id":"0.0-19.17-1.17"},{"rt":null,"stimulus":"<div style=\"background-color:#6dce98\"><h1 style=\"background-color:MediumSeaGreen\" >You won a prize! Well done!</h1><div style=\"background-color:#6dce98\"><h1 style=\"background-color:MediumSeaGreen\" >Only 14 left to go!</h1><img id=\"box\" src=\"img/prizes/coins.png\"></img><img id=\"box\" src=\"img/empty/redopenbox.png\"></img></div>","key_press":null,"trial_type":"html-keyboard-response","trial_index":59,"time_elapsed":503695,"internal_node_id":"0.0-19.17-1.17"},{"rt":1366.6250000242144,"stimulus":"<p>Choose a box,</p>","button_pressed":3,"trial_type":"html-button-response","trial_index":60,"time_elapsed":505066,"internal_node_id":"0.0-19.18-0.18"},{"rate":0.753295858549171,"trial_type":"html-keyboard-response","trial_index":61,"time_elapsed":505066,"internal_node_id":"0.0-19.18-1.18"},{"rt":null,"stimulus":"<div style=\"background-color:#6dce98\"><h1 style=\"background-color:MediumSeaGreen\" >You won a prize! Well done!</h1><div style=\"background-color:#6dce98\"><h1 style=\"background-color:MediumSeaGreen\" >Only 13 left to go!</h1><img id=\"box\" src=\"img/prizes/lolipop.png\"></img><img id=\"box\" src=\"img/empty/redopenbox.png\"></img></div>","key_press":null,"trial_type":"html-keyboard-response","trial_index":61,"time_elapsed":506584,"internal_node_id":"0.0-19.18-1.18"},{"rt":678.9600001648068,"stimulus":"<p>Choose a box,</p>","button_pressed":3,"trial_type":"html-button-response","trial_index":62,"time_elapsed":507266,"internal_node_id":"0.0-19.19-0.19"},{"rate":0.753295858549171,"trial_type":"html-keyboard-response","trial_index":63,"time_elapsed":507266,"internal_node_id":"0.0-19.19-1.19"},{"rt":null,"stimulus":"<div style=\"background-color:#6dce98\"><h1 style=\"background-color:MediumSeaGreen\" >You won a prize! Well done!</h1><div style=\"background-color:#6dce98\"><h1 style=\"background-color:MediumSeaGreen\" >Only 12 left to go!</h1><img id=\"box\" src=\"img/prizes/duck.png\"></img><img id=\"box\" src=\"img/empty/redopenbox.png\"></img></div>","key_press":null,"trial_type":"html-keyboard-response","trial_index":63,"time_elapsed":508773,"internal_node_id":"0.0-19.19-1.19"},{"rt":577.4100001435727,"stimulus":"<p>Choose a box,</p>","button_pressed":3,"trial_type":"html-button-response","trial_index":64,"time_elapsed":509353,"internal_node_id":"0.0-19.20-0.20"},{"rate":0.753295858549171,"trial_type":"html-keyboard-response","trial_index":65,"time_elapsed":509354,"internal_node_id":"0.0-19.20-1.20"},{"rt":null,"stimulus":"<div style=\"background-color:#6dce98\"><h1 style=\"background-color:MediumSeaGreen\" >You won a prize! Well done!</h1><div style=\"background-color:#6dce98\"><h1 style=\"background-color:MediumSeaGreen\" >Only 11 left to go!</h1><img id=\"box\" src=\"img/prizes/coins.png\"></img><img id=\"box\" src=\"img/empty/redopenbox.png\"></img></div>","key_press":null,"trial_type":"html-keyboard-response","trial_index":65,"time_elapsed":510859,"internal_node_id":"0.0-19.20-1.20"},{"rt":598.8700001034886,"stimulus":"<p>Choose a box,</p>","button_pressed":3,"trial_type":"html-button-response","trial_index":66,"time_elapsed":511461,"internal_node_id":"0.0-19.21-0.21"},{"rate":0.753295858549171,"trial_type":"html-keyboard-response","trial_index":67,"time_elapsed":511464,"internal_node_id":"0.0-19.21-1.21"},{"rt":null,"stimulus":"<div style=\"background-color:#ff7157\"><h1 style=\"background-color:Tomato\">Bad luck! There was no prize in the box!</h1><h1 style=\"background-color:Tomato\">Remember, you need to keep going until you have 20 prizes!</h1><img id=\"box\" src=\"img/sad/redopenboxsadthumb.png\"></img></div>","key_press":null,"trial_type":"html-keyboard-response","trial_index":67,"time_elapsed":512976,"internal_node_id":"0.0-19.21-1.21"},{"rt":652.6399999856949,"stimulus":"<p>Choose a box,</p>","button_pressed":3,"trial_type":"html-button-response","trial_index":68,"time_elapsed":513632,"internal_node_id":"0.0-19.22-0.22"},{"rate":0.753295858549171,"trial_type":"html-keyboard-response","trial_index":69,"time_elapsed":513632,"internal_node_id":"0.0-19.22-1.22"},{"rt":null,"stimulus":"<div style=\"background-color:#6dce98\"><h1 style=\"background-color:MediumSeaGreen\" >You won a prize! Well done!</h1><div style=\"background-color:#6dce98\"><h1 style=\"background-color:MediumSeaGreen\" >Only 10 left to go!</h1><img id=\"box\" src=\"img/prizes/coins.png\"></img><img id=\"box\" src=\"img/empty/redopenbox.png\"></img></div>","key_press":null,"trial_type":"html-keyboard-response","trial_index":69,"time_elapsed":515148,"internal_node_id":"0.0-19.22-1.22"},{"rt":649.0800001192838,"stimulus":"<p>Choose a box,</p>","button_pressed":3,"trial_type":"html-button-response","trial_index":70,"time_elapsed":515800,"internal_node_id":"0.0-19.23-0.23"},{"rate":0.753295858549171,"trial_type":"html-keyboard-response","trial_index":71,"time_elapsed":515802,"internal_node_id":"0.0-19.23-1.23"},{"rt":null,"stimulus":"<div style=\"background-color:#6dce98\"><h1 style=\"background-color:MediumSeaGreen\" >You won a prize! Well done!</h1><div style=\"background-color:#6dce98\"><h1 style=\"background-color:MediumSeaGreen\" >Only 9 left to go!</h1><img id=\"box\" src=\"img/prizes/bear.png\"></img><img id=\"box\" src=\"img/empty/redopenbox.png\"></img></div>","key_press":null,"trial_type":"html-keyboard-response","trial_index":71,"time_elapsed":517312,"internal_node_id":"0.0-19.23-1.23"},{"rt":592.5300000235438,"stimulus":"<p>Choose a box,</p>","button_pressed":3,"trial_type":"html-button-response","trial_index":72,"time_elapsed":517908,"internal_node_id":"0.0-19.24-0.24"},{"rate":0.753295858549171,"trial_type":"html-keyboard-response","trial_index":73,"time_elapsed":517908,"internal_node_id":"0.0-19.24-1.24"},{"rt":null,"stimulus":"<div style=\"background-color:#6dce98\"><h1 style=\"background-color:MediumSeaGreen\" >You won a prize! Well done!</h1><div style=\"background-color:#6dce98\"><h1 style=\"background-color:MediumSeaGreen\" >Only 8 left to go!</h1><img id=\"box\" src=\"img/prizes/yoyo.png\"></img><img id=\"box\" src=\"img/empty/redopenbox.png\"></img></div>","key_press":null,"trial_type":"html-keyboard-response","trial_index":73,"time_elapsed":519414,"internal_node_id":"0.0-19.24-1.24"},{"rt":651.1999999638647,"stimulus":"<p>Choose a box,</p>","button_pressed":3,"trial_type":"html-button-response","trial_index":74,"time_elapsed":520068,"internal_node_id":"0.0-19.25-0.25"},{"rate":0.753295858549171,"trial_type":"html-keyboard-response","trial_index":75,"time_elapsed":520068,"internal_node_id":"0.0-19.25-1.25"},{"rt":null,"stimulus":"<div style=\"background-color:#6dce98\"><h1 style=\"background-color:MediumSeaGreen\" >You won a prize! Well done!</h1><div style=\"background-color:#6dce98\"><h1 style=\"background-color:MediumSeaGreen\" >Only 7 left to go!</h1><img id=\"box\" src=\"img/prizes/ring.png\"></img><img id=\"box\" src=\"img/empty/redopenbox.png\"></img></div>","key_press":null,"trial_type":"html-keyboard-response","trial_index":75,"time_elapsed":521585,"internal_node_id":"0.0-19.25-1.25"},{"rt":586.5350000094622,"stimulus":"<p>Choose a box,</p>","button_pressed":3,"trial_type":"html-button-response","trial_index":76,"time_elapsed":522175,"internal_node_id":"0.0-19.26-0.26"},{"rate":0.753295858549171,"trial_type":"html-keyboard-response","trial_index":77,"time_elapsed":522175,"internal_node_id":"0.0-19.26-1.26"},{"rt":null,"stimulus":"<div style=\"background-color:#6dce98\"><h1 style=\"background-color:MediumSeaGreen\" >You won a prize! Well done!</h1><div style=\"background-color:#6dce98\"><h1 style=\"background-color:MediumSeaGreen\" >Only 6 left to go!</h1><img id=\"box\" src=\"img/prizes/flowers.png\"></img><img id=\"box\" src=\"img/empty/redopenbox.png\"></img></div>","key_press":null,"trial_type":"html-keyboard-response","trial_index":77,"time_elapsed":523687,"internal_node_id":"0.0-19.26-1.26"},{"rt":614.2550001386553,"stimulus":"<p>Choose a box,</p>","button_pressed":3,"trial_type":"html-button-response","trial_index":78,"time_elapsed":524303,"internal_node_id":"0.0-19.27-0.27"},{"rate":0.753295858549171,"trial_type":"html-keyboard-response","trial_index":79,"time_elapsed":524304,"internal_node_id":"0.0-19.27-1.27"},{"rt":null,"stimulus":"<div style=\"background-color:#ff7157\"><h1 style=\"background-color:Tomato\">Bad luck! There was no prize in the box!</h1><h1 style=\"background-color:Tomato\">Remember, you need to keep going until you have 20 prizes!</h1><img id=\"box\" src=\"img/sad/redopenboxsadthumb.png\"></img></div>","key_press":null,"trial_type":"html-keyboard-response","trial_index":79,"time_elapsed":525823,"internal_node_id":"0.0-19.27-1.27"},{"rt":584.3499999027699,"stimulus":"<p>Choose a box,</p>","button_pressed":3,"trial_type":"html-button-response","trial_index":80,"time_elapsed":526413,"internal_node_id":"0.0-19.28-0.28"},{"rate":0.753295858549171,"trial_type":"html-keyboard-response","trial_index":81,"time_elapsed":526413,"internal_node_id":"0.0-19.28-1.28"},{"rt":null,"stimulus":"<div style=\"background-color:#6dce98\"><h1 style=\"background-color:MediumSeaGreen\" >You won a prize! Well done!</h1><div style=\"background-color:#6dce98\"><h1 style=\"background-color:MediumSeaGreen\" >Only 5 left to go!</h1><img id=\"box\" src=\"img/prizes/duck.png\"></img><img id=\"box\" src=\"img/empty/redopenbox.png\"></img></div>","key_press":null,"trial_type":"html-keyboard-response","trial_index":81,"time_elapsed":527927,"internal_node_id":"0.0-19.28-1.28"},{"rt":628.885000012815,"stimulus":"<p>Choose a box,</p>","button_pressed":3,"trial_type":"html-button-response","trial_index":82,"time_elapsed":528560,"internal_node_id":"0.0-19.29-0.29"},{"rate":0.753295858549171,"trial_type":"html-keyboard-response","trial_index":83,"time_elapsed":528563,"internal_node_id":"0.0-19.29-1.29"},{"rt":null,"stimulus":"<div style=\"background-color:#6dce98\"><h1 style=\"background-color:MediumSeaGreen\" >You won a prize! Well done!</h1><div style=\"background-color:#6dce98\"><h1 style=\"background-color:MediumSeaGreen\" >Only 4 left to go!</h1><img id=\"box\" src=\"img/prizes/coins.png\"></img><img id=\"box\" src=\"img/empty/redopenbox.png\"></img></div>","key_press":null,"trial_type":"html-keyboard-response","trial_index":83,"time_elapsed":530077,"internal_node_id":"0.0-19.29-1.29"},{"rt":626.9999998621643,"stimulus":"<p>Choose a box,</p>","button_pressed":3,"trial_type":"html-button-response","trial_index":84,"time_elapsed":530708,"internal_node_id":"0.0-19.30-0.30"},{"rate":0.753295858549171,"trial_type":"html-keyboard-response","trial_index":85,"time_elapsed":530708,"internal_node_id":"0.0-19.30-1.30"},{"rt":null,"stimulus":"<div style=\"background-color:#6dce98\"><h1 style=\"background-color:MediumSeaGreen\" >You won a prize! Well done!</h1><div style=\"background-color:#6dce98\"><h1 style=\"background-color:MediumSeaGreen\" >Only 3 left to go!</h1><img id=\"box\" src=\"img/prizes/yoyo.png\"></img><img id=\"box\" src=\"img/empty/redopenbox.png\"></img></div>","key_press":null,"trial_type":"html-keyboard-response","trial_index":85,"time_elapsed":532228,"internal_node_id":"0.0-19.30-1.30"},{"rt":636.0049999784678,"stimulus":"<p>Choose a box,</p>","button_pressed":3,"trial_type":"html-button-response","trial_index":86,"time_elapsed":532868,"internal_node_id":"0.0-19.31-0.31"},{"rate":0.753295858549171,"trial_type":"html-keyboard-response","trial_index":87,"time_elapsed":532869,"internal_node_id":"0.0-19.31-1.31"},{"rt":null,"stimulus":"<div style=\"background-color:#ff7157\"><h1 style=\"background-color:Tomato\">Bad luck! There was no prize in the box!</h1><h1 style=\"background-color:Tomato\">Remember, you need to keep going until you have 20 prizes!</h1><img id=\"box\" src=\"img/sad/redopenboxsadthumb.png\"></img></div>","key_press":null,"trial_type":"html-keyboard-response","trial_index":87,"time_elapsed":534372,"internal_node_id":"0.0-19.31-1.31"},{"rt":706.5949998795986,"stimulus":"<p>Choose a box,</p>","button_pressed":3,"trial_type":"html-button-response","trial_index":88,"time_elapsed":535081,"internal_node_id":"0.0-19.32-0.32"},{"rate":0.753295858549171,"trial_type":"html-keyboard-response","trial_index":89,"time_elapsed":535082,"internal_node_id":"0.0-19.32-1.32"},{"rt":null,"stimulus":"<div style=\"background-color:#6dce98\"><h1 style=\"background-color:MediumSeaGreen\" >You won a prize! Well done!</h1><div style=\"background-color:#6dce98\"><h1 style=\"background-color:MediumSeaGreen\" >Only 2 left to go!</h1><img id=\"box\" src=\"img/prizes/bear.png\"></img><img id=\"box\" src=\"img/empty/redopenbox.png\"></img></div>","key_press":null,"trial_type":"html-keyboard-response","trial_index":89,"time_elapsed":536595,"internal_node_id":"0.0-19.32-1.32"},{"rt":607.6650000177324,"stimulus":"<p>Choose a box,</p>","button_pressed":3,"trial_type":"html-button-response","trial_index":90,"time_elapsed":537205,"internal_node_id":"0.0-19.33-0.33"},{"rate":0.753295858549171,"trial_type":"html-keyboard-response","trial_index":91,"time_elapsed":537206,"internal_node_id":"0.0-19.33-1.33"},{"rt":null,"stimulus":"<div style=\"background-color:#6dce98\"><h1 style=\"background-color:MediumSeaGreen\" >You won a prize! Well done!</h1><div style=\"background-color:#6dce98\"><h1 style=\"background-color:MediumSeaGreen\" >Only 1 left to go!</h1><img id=\"box\" src=\"img/prizes/choc.png\"></img><img id=\"box\" src=\"img/empty/redopenbox.png\"></img></div>","key_press":null,"trial_type":"html-keyboard-response","trial_index":91,"time_elapsed":538713,"internal_node_id":"0.0-19.33-1.33"},{"rt":146.91500016488135,"stimulus":"<p>Choose a box,</p>","button_pressed":3,"trial_type":"html-button-response","trial_index":92,"time_elapsed":538863,"internal_node_id":"0.0-19.34-0.34"},{"rate":0.753295858549171,"trial_type":"html-keyboard-response","trial_index":93,"time_elapsed":538864,"internal_node_id":"0.0-19.34-1.34"},{"rt":null,"stimulus":"<div style=\"background-color:#6dce98\"><h1 style=\"background-color:MediumSeaGreen\" >You won a prize! Well done!</h1><div style=\"background-color:#6dce98\"><h1 style=\"background-color:MediumSeaGreen\" >Only 0 left to go!</h1><img id=\"box\" src=\"img/prizes/duck.png\"></img><img id=\"box\" src=\"img/empty/redopenbox.png\"></img></div>","key_press":null,"trial_type":"html-keyboard-response","trial_index":93,"time_elapsed":540369,"internal_node_id":"0.0-19.34-1.34"},{"rt":59883.75000003725,"responses":"{\"Q0\":\"It was fun.\",\"Q1\":\"I started picking randomly but then I noticed the red box gave prizes more often than the other boxes.\"}","trial_type":"survey-text","trial_index":94,"time_elapsed":600276,"internal_node_id":"0.0-20.0"}]