[
    {
        "view_history": "[{\"page_index\":0,\"viewing_time\":4108.305000001565},{\"page_index\":1,\"viewing_time\":921.559999929741},{\"page_index\":2,\"viewing_time\":718.7700001522899},{\"page_index\":3,\"viewing_time\":561.4000000059605},{\"page_index\":4,\"viewing_time\":580.820000031963},{\"page_index\":5,\"viewing_time\":1061.5999998990446}]",
        "rt": 7953.234999906272,
        "trial_type": "instructions",
        "trial_index": 0,
        "time_elapsed": 7955,
        "internal_node_id": "0.0-0.0"
    },
    {
        "rt": 5255.090000107884,
        "responses": "{\"Q0\":\"Yes\",\"Q1\":\"Yes\",\"Q2\":\"Yes\"}",
        "question_order": "[0,1,2]",
        "trial_type": "survey-multi-choice",
        "trial_index": 1,
        "time_elapsed": 13212,
        "internal_node_id": "0.0-1.0-0.0"
    },
    {
        "rt": 2902.724999934435,
        "responses": "{\"Q0\":\"Yes\",\"Q1\":\"Yes\",\"Q2\":\"Yes\"}",
        "question_order": "[0,1,2]",
        "trial_type": "survey-multi-choice",
        "trial_index": 2,
        "time_elapsed": 16120,
        "internal_node_id": "0.0-2.0-0.0"
    },
    {
        "rt": 2203.2550000585616,
        "responses": "{\"Q0\":\"5f0521a85c590c824dadb24d\"}",
        "trial_type": "survey-text",
        "trial_index": 3,
        "time_elapsed": 18329,
        "internal_node_id": "0.0-3.0"
    },
    {
        "rt": 17568.269999930635,
        "responses": "{\"Q0\":\"Male\",\"Q1\":\"25-34\"}",
        "question_order": "[0,1]",
        "trial_type": "survey-multi-choice",
        "trial_index": 4,
        "time_elapsed": 35899,
        "internal_node_id": "0.0-4.0"
    },
    {
        "rt": 1161.324999993667,
        "responses": "{\"Q0\":\"\"}",
        "trial_type": "survey-text",
        "trial_index": 5,
        "time_elapsed": 37063,
        "internal_node_id": "0.0-5.0"
    },
    {
        "view_history": "[{\"page_index\":0,\"viewing_time\":1240.5799999833107}]",
        "rt": 1240.7500001136214,
        "trial_type": "instructions",
        "trial_index": 6,
        "time_elapsed": 38304,
        "internal_node_id": "0.0-6.0"
    },
    {
        "rt": 8358.155000023544,
        "responses": "{\"Interested\":1,\"Distressed\":3,\"Excited\":1,\"Upset\":2}",
        "question_order": "[0,1,2,3]",
        "trial_type": "survey-likert",
        "trial_index": 7,
        "time_elapsed": 46664,
        "internal_node_id": "0.0-7.0"
    },
    {
        "rt": 7101.090000011027,
        "responses": "{\"Strong\":0,\"Guilty\":3,\"Scared\":2,\"Hostile\":2}",
        "question_order": "[0,1,2,3]",
        "trial_type": "survey-likert",
        "trial_index": 8,
        "time_elapsed": 53767,
        "internal_node_id": "0.0-8.0"
    },
    {
        "rt": 5456.825000001118,
        "responses": "{\"Enthusiastic\":0,\"Proud\":0,\"Irritable\":2,\"Alert\":3}",
        "question_order": "[0,1,2,3]",
        "trial_type": "survey-likert",
        "trial_index": 9,
        "time_elapsed": 59225,
        "internal_node_id": "0.0-9.0"
    },
    {
        "rt": 11428.605000022799,
        "responses": "{\"Ashamed\":3,\"Inspired\":0,\"Nervous\":3,\"Determined\":0}",
        "question_order": "[0,1,2,3]",
        "trial_type": "survey-likert",
        "trial_index": 10,
        "time_elapsed": 70656,
        "internal_node_id": "0.0-10.0"
    },
    {
        "rt": 9863.69500006549,
        "responses": "{\"Attentive\":1,\"Jittery\":2,\"Active\":1,\"Afraid\":3}",
        "question_order": "[0,1,2,3]",
        "trial_type": "survey-likert",
        "trial_index": 11,
        "time_elapsed": 80521,
        "internal_node_id": "0.0-11.0"
    },
    {
        "rt": 30401.934999972582,
        "responses": "{\"Q0\":2,\"Q1\":2,\"Q2\":3,\"Q3\":2}",
        "question_order": "[0,1,2,3]",
        "trial_type": "survey-likert",
        "trial_index": 12,
        "time_elapsed": 110925,
        "internal_node_id": "0.0-12.0"
    },
    {
        "rt": 18233.045000117272,
        "responses": "{\"Q0\":1,\"Q1\":2,\"Q2\":3,\"Q3\":1}",
        "question_order": "[0,1,2,3]",
        "trial_type": "survey-likert",
        "trial_index": 13,
        "time_elapsed": 129160,
        "internal_node_id": "0.0-13.0"
    },
    {
        "rt": 8421.615000115708,
        "responses": "{\"Q0\":2,\"Q1\":2,\"Q2\":2,\"Q3\":2}",
        "question_order": "[0,1,2,3]",
        "trial_type": "survey-likert",
        "trial_index": 14,
        "time_elapsed": 137583,
        "internal_node_id": "0.0-14.0"
    },
    {
        "rt": 5770.215000025928,
        "responses": "{\"Q0\":2,\"Q1\":1,\"Q2\":1}",
        "question_order": "[0,1,2]",
        "trial_type": "survey-likert",
        "trial_index": 15,
        "time_elapsed": 143354,
        "internal_node_id": "0.0-15.0"
    },
    {
        "view_history": "[{\"page_index\":0,\"viewing_time\":852.3349999450147},{\"page_index\":1,\"viewing_time\":733.5750001948327},{\"page_index\":2,\"viewing_time\":891.8500000145286}]",
        "rt": 2477.930000051856,
        "trial_type": "instructions",
        "trial_index": 16,
        "time_elapsed": 145838,
        "internal_node_id": "0.0-16.0"
    },
    {
        "rt": 602.7699999976903,
        "stimulus": "<p>Choose a box,</p>",
        "button_pressed": 1,
        "trial_type": "html-button-response",
        "trial_index": 17,
        "time_elapsed": 146442,
        "internal_node_id": "0.0-17.0-0.0"
    },
    {
        "rate": 0.16578110757645279,
        "trial_type": "html-keyboard-response",
        "trial_index": 18,
        "time_elapsed": 146442,
        "internal_node_id": "0.0-17.0-1.0"
    },
    {
        "rt": null,
        "stimulus": "<div style=\"background-color:#ff7157\"><h1 style=\"background-color:Tomato\">Bad luck! There was no prize in the box!</h1><h1 style=\"background-color:Tomato\">Remember, you need to keep going until you have 20 prizes!</h1><img id=\"box\" src=\"img/sad/greenopenboxsadthumb.png\"></img></div>",
        "key_press": null,
        "trial_type": "html-keyboard-response",
        "trial_index": 18,
        "time_elapsed": 147943,
        "internal_node_id": "0.0-17.0-1.0"
    },
    {
        "rt": 1500.7300002034754,
        "stimulus": "<p>Choose a box,</p>",
        "button_pressed": 1,
        "trial_type": "html-button-response",
        "trial_index": 19,
        "time_elapsed": 149445,
        "internal_node_id": "0.0-17.0-0.1"
    },
    {
        "rate": 0.16578110757645279,
        "trial_type": "html-keyboard-response",
        "trial_index": 20,
        "time_elapsed": 149445,
        "internal_node_id": "0.0-17.0-1.1"
    },
    {
        "rt": null,
        "stimulus": "<div style=\"background-color:#ff7157\"><h1 style=\"background-color:Tomato\">Bad luck! There was no prize in the box!</h1><h1 style=\"background-color:Tomato\">Remember, you need to keep going until you have 20 prizes!</h1><img id=\"box\" src=\"img/sad/greenopenboxsadthumb.png\"></img></div>",
        "key_press": null,
        "trial_type": "html-keyboard-response",
        "trial_index": 20,
        "time_elapsed": 150946,
        "internal_node_id": "0.0-17.0-1.1"
    },
    {
        "rt": 959.8799999803305,
        "stimulus": "<p>Choose a box,</p>",
        "button_pressed": 2,
        "trial_type": "html-button-response",
        "trial_index": 21,
        "time_elapsed": 151907,
        "internal_node_id": "0.0-17.0-0.2"
    },
    {
        "rate": 0.35762553352728926,
        "trial_type": "html-keyboard-response",
        "trial_index": 22,
        "time_elapsed": 151908,
        "internal_node_id": "0.0-17.0-1.2"
    },
    {
        "rt": null,
        "stimulus": "<div style=\"background-color:#ff7157\"><h1 style=\"background-color:Tomato\">Bad luck! There was no prize in the box!</h1><h1 style=\"background-color:Tomato\">Remember, you need to keep going until you have 20 prizes!</h1><img id=\"box\" src=\"img/sad/purpleopenboxsadthumb.png\"></img></div>",
        "key_press": null,
        "trial_type": "html-keyboard-response",
        "trial_index": 22,
        "time_elapsed": 153410,
        "internal_node_id": "0.0-17.0-1.2"
    },
    {
        "view_history": "[{\"page_index\":0,\"viewing_time\":4646.445000078529}]",
        "rt": 4646.660000085831,
        "trial_type": "instructions",
        "trial_index": 23,
        "time_elapsed": 158057,
        "internal_node_id": "0.0-18.0"
    },
    {
        "rt": 972.0000000670552,
        "stimulus": "<p>Choose a box,</p>",
        "button_pressed": 0,
        "trial_type": "html-button-response",
        "trial_index": 24,
        "time_elapsed": 159031,
        "internal_node_id": "0.0-19.0-0.0"
    },
    {
        "rate": 0.2578722698739864,
        "trial_type": "html-keyboard-response",
        "trial_index": 25,
        "time_elapsed": 159031,
        "internal_node_id": "0.0-19.0-1.0"
    },
    {
        "rt": null,
        "stimulus": "<div style=\"background-color:#ff7157\"><h1 style=\"background-color:Tomato\">Bad luck! There was no prize in the box!</h1><h1 style=\"background-color:Tomato\">Remember, you need to keep going until you have 20 prizes!</h1><img id=\"box\" src=\"img/sad/blueopenboxsadthumb.png\"></img></div>",
        "key_press": null,
        "trial_type": "html-keyboard-response",
        "trial_index": 25,
        "time_elapsed": 160532,
        "internal_node_id": "0.0-19.0-1.0"
    },
    {
        "rt": 676.3450000435114,
        "stimulus": "<p>Choose a box,</p>",
        "button_pressed": 1,
        "trial_type": "html-button-response",
        "trial_index": 26,
        "time_elapsed": 161211,
        "internal_node_id": "0.0-19.1-0.1"
    },
    {
        "rate": 0.6062633344409184,
        "trial_type": "html-keyboard-response",
        "trial_index": 27,
        "time_elapsed": 161212,
        "internal_node_id": "0.0-19.1-1.1"
    },
    {
        "rt": null,
        "stimulus": "<div style=\"background-color:#ff7157\"><h1 style=\"background-color:Tomato\">Bad luck! There was no prize in the box!</h1><h1 style=\"background-color:Tomato\">Remember, you need to keep going until you have 20 prizes!</h1><img id=\"box\" src=\"img/sad/greenopenboxsadthumb.png\"></img></div>",
        "key_press": null,
        "trial_type": "html-keyboard-response",
        "trial_index": 27,
        "time_elapsed": 162713,
        "internal_node_id": "0.0-19.1-1.1"
    },
    {
        "rt": 301.1199999600649,
        "stimulus": "<p>Choose a box,</p>",
        "button_pressed": 3,
        "trial_type": "html-button-response",
        "trial_index": 28,
        "time_elapsed": 163015,
        "internal_node_id": "0.0-19.2-0.2"
    },
    {
        "rate": 0.05585244597944277,
        "trial_type": "html-keyboard-response",
        "trial_index": 29,
        "time_elapsed": 163015,
        "internal_node_id": "0.0-19.2-1.2"
    },
    {
        "rt": null,
        "stimulus": "<div style=\"background-color:#ff7157\"><h1 style=\"background-color:Tomato\">Bad luck! There was no prize in the box!</h1><h1 style=\"background-color:Tomato\">Remember, you need to keep going until you have 20 prizes!</h1><img id=\"box\" src=\"img/sad/redopenboxsadthumb.png\"></img></div>",
        "key_press": null,
        "trial_type": "html-keyboard-response",
        "trial_index": 29,
        "time_elapsed": 164518,
        "internal_node_id": "0.0-19.2-1.2"
    },
    {
        "rt": 410.6200002133846,
        "stimulus": "<p>Choose a box,</p>",
        "button_pressed": 2,
        "trial_type": "html-button-response",
        "trial_index": 30,
        "time_elapsed": 164929,
        "internal_node_id": "0.0-19.3-0.3"
    },
    {
        "rate": 0.4976566269966993,
        "trial_type": "html-keyboard-response",
        "trial_index": 31,
        "time_elapsed": 164929,
        "internal_node_id": "0.0-19.3-1.3"
    },
    {
        "rt": null,
        "stimulus": "<div style=\"background-color:#6dce98\"><h1 style=\"background-color:MediumSeaGreen\" >You won a prize! Well done!</h1><div style=\"background-color:#6dce98\"><h1 style=\"background-color:MediumSeaGreen\" >Only 19 left to go!</h1><img id=\"box\" src=\"img/prizes/bear.png\"></img><img id=\"box\" src=\"img/empty/purpleopenbox.png\"></img></div>",
        "key_press": null,
        "trial_type": "html-keyboard-response",
        "trial_index": 31,
        "time_elapsed": 166431,
        "internal_node_id": "0.0-19.3-1.3"
    },
    {
        "rt": 1192.4550000112504,
        "stimulus": "<p>Choose a box,</p>",
        "button_pressed": 2,
        "trial_type": "html-button-response",
        "trial_index": 32,
        "time_elapsed": 167625,
        "internal_node_id": "0.0-19.4-0.4"
    },
    {
        "rate": 0.4976566269966993,
        "trial_type": "html-keyboard-response",
        "trial_index": 33,
        "time_elapsed": 167625,
        "internal_node_id": "0.0-19.4-1.4"
    },
    {
        "rt": null,
        "stimulus": "<div style=\"background-color:#ff7157\"><h1 style=\"background-color:Tomato\">Bad luck! There was no prize in the box!</h1><h1 style=\"background-color:Tomato\">Remember, you need to keep going until you have 20 prizes!</h1><img id=\"box\" src=\"img/sad/purpleopenboxsadthumb.png\"></img></div>",
        "key_press": null,
        "trial_type": "html-keyboard-response",
        "trial_index": 33,
        "time_elapsed": 169126,
        "internal_node_id": "0.0-19.4-1.4"
    },
    {
        "rt": 310.3149998933077,
        "stimulus": "<p>Choose a box,</p>",
        "button_pressed": 1,
        "trial_type": "html-button-response",
        "trial_index": 34,
        "time_elapsed": 169437,
        "internal_node_id": "0.0-19.5-0.5"
    },
    {
        "rate": 0.6062633344409184,
        "trial_type": "html-keyboard-response",
        "trial_index": 35,
        "time_elapsed": 169438,
        "internal_node_id": "0.0-19.5-1.5"
    },
    {
        "rt": null,
        "stimulus": "<div style=\"background-color:#ff7157\"><h1 style=\"background-color:Tomato\">Bad luck! There was no prize in the box!</h1><h1 style=\"background-color:Tomato\">Remember, you need to keep going until you have 20 prizes!</h1><img id=\"box\" src=\"img/sad/greenopenboxsadthumb.png\"></img></div>",
        "key_press": null,
        "trial_type": "html-keyboard-response",
        "trial_index": 35,
        "time_elapsed": 170940,
        "internal_node_id": "0.0-19.5-1.5"
    },
    {
        "rt": 869.5149999111891,
        "stimulus": "<p>Choose a box,</p>",
        "button_pressed": 0,
        "trial_type": "html-button-response",
        "trial_index": 36,
        "time_elapsed": 171811,
        "internal_node_id": "0.0-19.6-0.6"
    },
    {
        "rate": 0.2578722698739864,
        "trial_type": "html-keyboard-response",
        "trial_index": 37,
        "time_elapsed": 171811,
        "internal_node_id": "0.0-19.6-1.6"
    },
    {
        "rt": null,
        "stimulus": "<div style=\"background-color:#6dce98\"><h1 style=\"background-color:MediumSeaGreen\" >You won a prize! Well done!</h1><div style=\"background-color:#6dce98\"><h1 style=\"background-color:MediumSeaGreen\" >Only 18 left to go!</h1><img id=\"box\" src=\"img/prizes/lolipop.png\"></img><img id=\"box\" src=\"img/empty/blueopenbox.png\"></img></div>",
        "key_press": null,
        "trial_type": "html-keyboard-response",
        "trial_index": 37,
        "time_elapsed": 173313,
        "internal_node_id": "0.0-19.6-1.6"
    },
    {
        "rt": 393.33499991334975,
        "stimulus": "<p>Choose a box,</p>",
        "button_pressed": 3,
        "trial_type": "html-button-response",
        "trial_index": 38,
        "time_elapsed": 173709,
        "internal_node_id": "0.0-19.7-0.7"
    },
    {
        "rate": 0.05585244597944277,
        "trial_type": "html-keyboard-response",
        "trial_index": 39,
        "time_elapsed": 173709,
        "internal_node_id": "0.0-19.7-1.7"
    },
    {
        "rt": null,
        "stimulus": "<div style=\"background-color:#ff7157\"><h1 style=\"background-color:Tomato\">Bad luck! There was no prize in the box!</h1><h1 style=\"background-color:Tomato\">Remember, you need to keep going until you have 20 prizes!</h1><img id=\"box\" src=\"img/sad/redopenboxsadthumb.png\"></img></div>",
        "key_press": null,
        "trial_type": "html-keyboard-response",
        "trial_index": 39,
        "time_elapsed": 175211,
        "internal_node_id": "0.0-19.7-1.7"
    },
    {
        "rt": 466.33500000461936,
        "stimulus": "<p>Choose a box,</p>",
        "button_pressed": 1,
        "trial_type": "html-button-response",
        "trial_index": 40,
        "time_elapsed": 175680,
        "internal_node_id": "0.0-19.8-0.8"
    },
    {
        "rate": 0.6062633344409184,
        "trial_type": "html-keyboard-response",
        "trial_index": 41,
        "time_elapsed": 175680,
        "internal_node_id": "0.0-19.8-1.8"
    },
    {
        "rt": null,
        "stimulus": "<div style=\"background-color:#6dce98\"><h1 style=\"background-color:MediumSeaGreen\" >You won a prize! Well done!</h1><div style=\"background-color:#6dce98\"><h1 style=\"background-color:MediumSeaGreen\" >Only 17 left to go!</h1><img id=\"box\" src=\"img/prizes/flowers.png\"></img><img id=\"box\" src=\"img/empty/greenopenbox.png\"></img></div>",
        "key_press": null,
        "trial_type": "html-keyboard-response",
        "trial_index": 41,
        "time_elapsed": 177183,
        "internal_node_id": "0.0-19.8-1.8"
    },
    {
        "rt": 321.49500004015863,
        "stimulus": "<p>Choose a box,</p>",
        "button_pressed": 1,
        "trial_type": "html-button-response",
        "trial_index": 42,
        "time_elapsed": 177507,
        "internal_node_id": "0.0-19.9-0.9"
    },
    {
        "rate": 0.6062633344409184,
        "trial_type": "html-keyboard-response",
        "trial_index": 43,
        "time_elapsed": 177507,
        "internal_node_id": "0.0-19.9-1.9"
    },
    {
        "rt": null,
        "stimulus": "<div style=\"background-color:#6dce98\"><h1 style=\"background-color:MediumSeaGreen\" >You won a prize! Well done!</h1><div style=\"background-color:#6dce98\"><h1 style=\"background-color:MediumSeaGreen\" >Only 16 left to go!</h1><img id=\"box\" src=\"img/prizes/ring.png\"></img><img id=\"box\" src=\"img/empty/greenopenbox.png\"></img></div>",
        "key_press": null,
        "trial_type": "html-keyboard-response",
        "trial_index": 43,
        "time_elapsed": 179009,
        "internal_node_id": "0.0-19.9-1.9"
    },
    {
        "rt": 527.6399999856949,
        "stimulus": "<p>Choose a box,</p>",
        "button_pressed": 3,
        "trial_type": "html-button-response",
        "trial_index": 44,
        "time_elapsed": 179539,
        "internal_node_id": "0.0-19.10-0.10"
    },
    {
        "rate": 0.05585244597944277,
        "trial_type": "html-keyboard-response",
        "trial_index": 45,
        "time_elapsed": 179539,
        "internal_node_id": "0.0-19.10-1.10"
    },
    {
        "rt": null,
        "stimulus": "<div style=\"background-color:#ff7157\"><h1 style=\"background-color:Tomato\">Bad luck! There was no prize in the box!</h1><h1 style=\"background-color:Tomato\">Remember, you need to keep going until you have 20 prizes!</h1><img id=\"box\" src=\"img/sad/redopenboxsadthumb.png\"></img></div>",
        "key_press": null,
        "trial_type": "html-keyboard-response",
        "trial_index": 45,
        "time_elapsed": 181041,
        "internal_node_id": "0.0-19.10-1.10"
    },
    {
        "rt": 324.5900000911206,
        "stimulus": "<p>Choose a box,</p>",
        "button_pressed": 0,
        "trial_type": "html-button-response",
        "trial_index": 46,
        "time_elapsed": 181366,
        "internal_node_id": "0.0-19.11-0.11"
    },
    {
        "rate": 0.2578722698739864,
        "trial_type": "html-keyboard-response",
        "trial_index": 47,
        "time_elapsed": 181366,
        "internal_node_id": "0.0-19.11-1.11"
    },
    {
        "rt": null,
        "stimulus": "<div style=\"background-color:#6dce98\"><h1 style=\"background-color:MediumSeaGreen\" >You won a prize! Well done!</h1><div style=\"background-color:#6dce98\"><h1 style=\"background-color:MediumSeaGreen\" >Only 15 left to go!</h1><img id=\"box\" src=\"img/prizes/bear.png\"></img><img id=\"box\" src=\"img/empty/blueopenbox.png\"></img></div>",
        "key_press": null,
        "trial_type": "html-keyboard-response",
        "trial_index": 47,
        "time_elapsed": 182868,
        "internal_node_id": "0.0-19.11-1.11"
    },
    {
        "rt": 374.9500000849366,
        "stimulus": "<p>Choose a box,</p>",
        "button_pressed": 2,
        "trial_type": "html-button-response",
        "trial_index": 48,
        "time_elapsed": 183244,
        "internal_node_id": "0.0-19.12-0.12"
    },
    {
        "rate": 0.4976566269966993,
        "trial_type": "html-keyboard-response",
        "trial_index": 49,
        "time_elapsed": 183244,
        "internal_node_id": "0.0-19.12-1.12"
    },
    {
        "rt": null,
        "stimulus": "<div style=\"background-color:#6dce98\"><h1 style=\"background-color:MediumSeaGreen\" >You won a prize! Well done!</h1><div style=\"background-color:#6dce98\"><h1 style=\"background-color:MediumSeaGreen\" >Only 14 left to go!</h1><img id=\"box\" src=\"img/prizes/coins.png\"></img><img id=\"box\" src=\"img/empty/purpleopenbox.png\"></img></div>",
        "key_press": null,
        "trial_type": "html-keyboard-response",
        "trial_index": 49,
        "time_elapsed": 184746,
        "internal_node_id": "0.0-19.12-1.12"
    },
    {
        "rt": 309.4199998304248,
        "stimulus": "<p>Choose a box,</p>",
        "button_pressed": 1,
        "trial_type": "html-button-response",
        "trial_index": 50,
        "time_elapsed": 185056,
        "internal_node_id": "0.0-19.13-0.13"
    },
    {
        "rate": 0.6062633344409184,
        "trial_type": "html-keyboard-response",
        "trial_index": 51,
        "time_elapsed": 185057,
        "internal_node_id": "0.0-19.13-1.13"
    },
    {
        "rt": null,
        "stimulus": "<div style=\"background-color:#6dce98\"><h1 style=\"background-color:MediumSeaGreen\" >You won a prize! Well done!</h1><div style=\"background-color:#6dce98\"><h1 style=\"background-color:MediumSeaGreen\" >Only 13 left to go!</h1><img id=\"box\" src=\"img/prizes/lolipop.png\"></img><img id=\"box\" src=\"img/empty/greenopenbox.png\"></img></div>",
        "key_press": null,
        "trial_type": "html-keyboard-response",
        "trial_index": 51,
        "time_elapsed": 186559,
        "internal_node_id": "0.0-19.13-1.13"
    },
    {
        "rt": 376.63500010967255,
        "stimulus": "<p>Choose a box,</p>",
        "button_pressed": 2,
        "trial_type": "html-button-response",
        "trial_index": 52,
        "time_elapsed": 186937,
        "internal_node_id": "0.0-19.14-0.14"
    },
    {
        "rate": 0.4976566269966993,
        "trial_type": "html-keyboard-response",
        "trial_index": 53,
        "time_elapsed": 186937,
        "internal_node_id": "0.0-19.14-1.14"
    },
    {
        "rt": null,
        "stimulus": "<div style=\"background-color:#6dce98\"><h1 style=\"background-color:MediumSeaGreen\" >You won a prize! Well done!</h1><div style=\"background-color:#6dce98\"><h1 style=\"background-color:MediumSeaGreen\" >Only 12 left to go!</h1><img id=\"box\" src=\"img/prizes/flowers.png\"></img><img id=\"box\" src=\"img/empty/purpleopenbox.png\"></img></div>",
        "key_press": null,
        "trial_type": "html-keyboard-response",
        "trial_index": 53,
        "time_elapsed": 188440,
        "internal_node_id": "0.0-19.14-1.14"
    },
    {
        "rt": 362.62000002898276,
        "stimulus": "<p>Choose a box,</p>",
        "button_pressed": 3,
        "trial_type": "html-button-response",
        "trial_index": 54,
        "time_elapsed": 188804,
        "internal_node_id": "0.0-19.15-0.15"
    },
    {
        "rate": 0.05585244597944277,
        "trial_type": "html-keyboard-response",
        "trial_index": 55,
        "time_elapsed": 188804,
        "internal_node_id": "0.0-19.15-1.15"
    },
    {
        "rt": null,
        "stimulus": "<div style=\"background-color:#ff7157\"><h1 style=\"background-color:Tomato\">Bad luck! There was no prize in the box!</h1><h1 style=\"background-color:Tomato\">Remember, you need to keep going until you have 20 prizes!</h1><img id=\"box\" src=\"img/sad/redopenboxsadthumb.png\"></img></div>",
        "key_press": null,
        "trial_type": "html-keyboard-response",
        "trial_index": 55,
        "time_elapsed": 190305,
        "internal_node_id": "0.0-19.15-1.15"
    },
    {
        "rt": 255.644999910146,
        "stimulus": "<p>Choose a box,</p>",
        "button_pressed": 1,
        "trial_type": "html-button-response",
        "trial_index": 56,
        "time_elapsed": 190562,
        "internal_node_id": "0.0-19.16-0.16"
    },
    {
        "rate": 0.6062633344409184,
        "trial_type": "html-keyboard-response",
        "trial_index": 57,
        "time_elapsed": 190562,
        "internal_node_id": "0.0-19.16-1.16"
    },
    {
        "rt": null,
        "stimulus": "<div style=\"background-color:#6dce98\"><h1 style=\"background-color:MediumSeaGreen\" >You won a prize! Well done!</h1><div style=\"background-color:#6dce98\"><h1 style=\"background-color:MediumSeaGreen\" >Only 11 left to go!</h1><img id=\"box\" src=\"img/prizes/beachball.png\"></img><img id=\"box\" src=\"img/empty/greenopenbox.png\"></img></div>",
        "key_press": null,
        "trial_type": "html-keyboard-response",
        "trial_index": 57,
        "time_elapsed": 192064,
        "internal_node_id": "0.0-19.16-1.16"
    },
    {
        "rt": 230.39499996230006,
        "stimulus": "<p>Choose a box,</p>",
        "button_pressed": 0,
        "trial_type": "html-button-response",
        "trial_index": 58,
        "time_elapsed": 192296,
        "internal_node_id": "0.0-19.17-0.17"
    },
    {
        "rate": 0.2578722698739864,
        "trial_type": "html-keyboard-response",
        "trial_index": 59,
        "time_elapsed": 192296,
        "internal_node_id": "0.0-19.17-1.17"
    },
    {
        "rt": null,
        "stimulus": "<div style=\"background-color:#6dce98\"><h1 style=\"background-color:MediumSeaGreen\" >You won a prize! Well done!</h1><div style=\"background-color:#6dce98\"><h1 style=\"background-color:MediumSeaGreen\" >Only 10 left to go!</h1><img id=\"box\" src=\"img/prizes/choc.png\"></img><img id=\"box\" src=\"img/empty/blueopenbox.png\"></img></div>",
        "key_press": null,
        "trial_type": "html-keyboard-response",
        "trial_index": 59,
        "time_elapsed": 193797,
        "internal_node_id": "0.0-19.17-1.17"
    },
    {
        "rt": 92.07999985665083,
        "stimulus": "<p>Choose a box,</p>",
        "button_pressed": 1,
        "trial_type": "html-button-response",
        "trial_index": 60,
        "time_elapsed": 193890,
        "internal_node_id": "0.0-19.18-0.18"
    },
    {
        "rate": 0.6062633344409184,
        "trial_type": "html-keyboard-response",
        "trial_index": 61,
        "time_elapsed": 193891,
        "internal_node_id": "0.0-19.18-1.18"
    },
    {
        "rt": null,
        "stimulus": "<div style=\"background-color:#6dce98\"><h1 style=\"background-color:MediumSeaGreen\" >You won a prize! Well done!</h1><div style=\"background-color:#6dce98\"><h1 style=\"background-color:MediumSeaGreen\" >Only 9 left to go!</h1><img id=\"box\" src=\"img/prizes/duck.png\"></img><img id=\"box\" src=\"img/empty/greenopenbox.png\"></img></div>",
        "key_press": null,
        "trial_type": "html-keyboard-response",
        "trial_index": 61,
        "time_elapsed": 195393,
        "internal_node_id": "0.0-19.18-1.18"
    },
    {
        "rt": 301.71000002883375,
        "stimulus": "<p>Choose a box,</p>",
        "button_pressed": 3,
        "trial_type": "html-button-response",
        "trial_index": 62,
        "time_elapsed": 195696,
        "internal_node_id": "0.0-19.19-0.19"
    },
    {
        "rate": 0.05585244597944277,
        "trial_type": "html-keyboard-response",
        "trial_index": 63,
        "time_elapsed": 195696,
        "internal_node_id": "0.0-19.19-1.19"
    },
    {
        "rt": null,
        "stimulus": "<div style=\"background-color:#ff7157\"><h1 style=\"background-color:Tomato\">Bad luck! There was no prize in the box!</h1><h1 style=\"background-color:Tomato\">Remember, you need to keep going until you have 20 prizes!</h1><img id=\"box\" src=\"img/sad/redopenboxsadthumb.png\"></img></div>",
        "key_press": null,
        "trial_type": "html-keyboard-response",
        "trial_index": 63,
        "time_elapsed": 197197,
        "internal_node_id": "0.0-19.19-1.19"
    },
    {
        "rt": 130.75000001117587,
        "stimulus": "<p>Choose a box,</p>",
        "button_pressed": 2,
        "trial_type": "html-button-response",
        "trial_index": 64,
        "time_elapsed": 197329,
        "internal_node_id": "0.0-19.20-0.20"
    },
    {
        "rate": 0.4976566269966993,
        "trial_type": "html-keyboard-response",
        "trial_index": 65,
        "time_elapsed": 197329,
        "internal_node_id": "0.0-19.20-1.20"
    },
    {
        "rt": null,
        "stimulus": "<div style=\"background-color:#ff7157\"><h1 style=\"background-color:Tomato\">Bad luck! There was no prize in the box!</h1><h1 style=\"background-color:Tomato\">Remember, you need to keep going until you have 20 prizes!</h1><img id=\"box\" src=\"img/sad/purpleopenboxsadthumb.png\"></img></div>",
        "key_press": null,
        "trial_type": "html-keyboard-response",
        "trial_index": 65,
        "time_elapsed": 198830,
        "internal_node_id": "0.0-19.20-1.20"
    },
    {
        "rt": 267.9699999280274,
        "stimulus": "<p>Choose a box,</p>",
        "button_pressed": 1,
        "trial_type": "html-button-response",
        "trial_index": 66,
        "time_elapsed": 199100,
        "internal_node_id": "0.0-19.21-0.21"
    },
    {
        "rate": 0.6062633344409184,
        "trial_type": "html-keyboard-response",
        "trial_index": 67,
        "time_elapsed": 199100,
        "internal_node_id": "0.0-19.21-1.21"
    },
    {
        "rt": null,
        "stimulus": "<div style=\"background-color:#ff7157\"><h1 style=\"background-color:Tomato\">Bad luck! There was no prize in the box!</h1><h1 style=\"background-color:Tomato\">Remember, you need to keep going until you have 20 prizes!</h1><img id=\"box\" src=\"img/sad/greenopenboxsadthumb.png\"></img></div>",
        "key_press": null,
        "trial_type": "html-keyboard-response",
        "trial_index": 67,
        "time_elapsed": 200602,
        "internal_node_id": "0.0-19.21-1.21"
    },
    {
        "rt": 228.9499999023974,
        "stimulus": "<p>Choose a box,</p>",
        "button_pressed": 0,
        "trial_type": "html-button-response",
        "trial_index": 68,
        "time_elapsed": 200833,
        "internal_node_id": "0.0-19.22-0.22"
    },
    {
        "rate": 0.2578722698739864,
        "trial_type": "html-keyboard-response",
        "trial_index": 69,
        "time_elapsed": 200833,
        "internal_node_id": "0.0-19.22-1.22"
    },
    {
        "rt": null,
        "stimulus": "<div style=\"background-color:#ff7157\"><h1 style=\"background-color:Tomato\">Bad luck! There was no prize in the box!</h1><h1 style=\"background-color:Tomato\">Remember, you need to keep going until you have 20 prizes!</h1><img id=\"box\" src=\"img/sad/blueopenboxsadthumb.png\"></img></div>",
        "key_press": null,
        "trial_type": "html-keyboard-response",
        "trial_index": 69,
        "time_elapsed": 202335,
        "internal_node_id": "0.0-19.22-1.22"
    },
    {
        "rt": 1076.9700000528246,
        "stimulus": "<p>Choose a box,</p>",
        "button_pressed": 1,
        "trial_type": "html-button-response",
        "trial_index": 70,
        "time_elapsed": 203413,
        "internal_node_id": "0.0-19.23-0.23"
    },
    {
        "rate": 0.6062633344409184,
        "trial_type": "html-keyboard-response",
        "trial_index": 71,
        "time_elapsed": 203413,
        "internal_node_id": "0.0-19.23-1.23"
    },
    {
        "rt": null,
        "stimulus": "<div style=\"background-color:#6dce98\"><h1 style=\"background-color:MediumSeaGreen\" >You won a prize! Well done!</h1><div style=\"background-color:#6dce98\"><h1 style=\"background-color:MediumSeaGreen\" >Only 8 left to go!</h1><img id=\"box\" src=\"img/prizes/ring.png\"></img><img id=\"box\" src=\"img/empty/greenopenbox.png\"></img></div>",
        "key_press": null,
        "trial_type": "html-keyboard-response",
        "trial_index": 71,
        "time_elapsed": 204915,
        "internal_node_id": "0.0-19.23-1.23"
    },
    {
        "rt": 577.250000089407,
        "stimulus": "<p>Choose a box,</p>",
        "button_pressed": 3,
        "trial_type": "html-button-response",
        "trial_index": 72,
        "time_elapsed": 205493,
        "internal_node_id": "0.0-19.24-0.24"
    },
    {
        "rate": 0.05585244597944277,
        "trial_type": "html-keyboard-response",
        "trial_index": 73,
        "time_elapsed": 205493,
        "internal_node_id": "0.0-19.24-1.24"
    },
    {
        "rt": null,
        "stimulus": "<div style=\"background-color:#ff7157\"><h1 style=\"background-color:Tomato\">Bad luck! There was no prize in the box!</h1><h1 style=\"background-color:Tomato\">Remember, you need to keep going until you have 20 prizes!</h1><img id=\"box\" src=\"img/sad/redopenboxsadthumb.png\"></img></div>",
        "key_press": null,
        "trial_type": "html-keyboard-response",
        "trial_index": 73,
        "time_elapsed": 206994,
        "internal_node_id": "0.0-19.24-1.24"
    },
    {
        "rt": 284.37000000849366,
        "stimulus": "<p>Choose a box,</p>",
        "button_pressed": 1,
        "trial_type": "html-button-response",
        "trial_index": 74,
        "time_elapsed": 207279,
        "internal_node_id": "0.0-19.25-0.25"
    },
    {
        "rate": 0.6062633344409184,
        "trial_type": "html-keyboard-response",
        "trial_index": 75,
        "time_elapsed": 207280,
        "internal_node_id": "0.0-19.25-1.25"
    },
    {
        "rt": null,
        "stimulus": "<div style=\"background-color:#6dce98\"><h1 style=\"background-color:MediumSeaGreen\" >You won a prize! Well done!</h1><div style=\"background-color:#6dce98\"><h1 style=\"background-color:MediumSeaGreen\" >Only 7 left to go!</h1><img id=\"box\" src=\"img/prizes/ring.png\"></img><img id=\"box\" src=\"img/empty/greenopenbox.png\"></img></div>",
        "key_press": null,
        "trial_type": "html-keyboard-response",
        "trial_index": 75,
        "time_elapsed": 208781,
        "internal_node_id": "0.0-19.25-1.25"
    },
    {
        "rt": 387.55500013940036,
        "stimulus": "<p>Choose a box,</p>",
        "button_pressed": 0,
        "trial_type": "html-button-response",
        "trial_index": 76,
        "time_elapsed": 209170,
        "internal_node_id": "0.0-19.26-0.26"
    },
    {
        "rate": 0.2578722698739864,
        "trial_type": "html-keyboard-response",
        "trial_index": 77,
        "time_elapsed": 209170,
        "internal_node_id": "0.0-19.26-1.26"
    },
    {
        "rt": null,
        "stimulus": "<div style=\"background-color:#ff7157\"><h1 style=\"background-color:Tomato\">Bad luck! There was no prize in the box!</h1><h1 style=\"background-color:Tomato\">Remember, you need to keep going until you have 20 prizes!</h1><img id=\"box\" src=\"img/sad/blueopenboxsadthumb.png\"></img></div>",
        "key_press": null,
        "trial_type": "html-keyboard-response",
        "trial_index": 77,
        "time_elapsed": 210672,
        "internal_node_id": "0.0-19.26-1.26"
    },
    {
        "rt": 567.185000050813,
        "stimulus": "<p>Choose a box,</p>",
        "button_pressed": 2,
        "trial_type": "html-button-response",
        "trial_index": 78,
        "time_elapsed": 211240,
        "internal_node_id": "0.0-19.27-0.27"
    },
    {
        "rate": 0.4976566269966993,
        "trial_type": "html-keyboard-response",
        "trial_index": 79,
        "time_elapsed": 211241,
        "internal_node_id": "0.0-19.27-1.27"
    },
    {
        "rt": null,
        "stimulus": "<div style=\"background-color:#6dce98\"><h1 style=\"background-color:MediumSeaGreen\" >You won a prize! Well done!</h1><div style=\"background-color:#6dce98\"><h1 style=\"background-color:MediumSeaGreen\" >Only 6 left to go!</h1><img id=\"box\" src=\"img/prizes/coins.png\"></img><img id=\"box\" src=\"img/empty/purpleopenbox.png\"></img></div>",
        "key_press": null,
        "trial_type": "html-keyboard-response",
        "trial_index": 79,
        "time_elapsed": 212743,
        "internal_node_id": "0.0-19.27-1.27"
    },
    {
        "rt": 441.31499994546175,
        "stimulus": "<p>Choose a box,</p>",
        "button_pressed": 3,
        "trial_type": "html-button-response",
        "trial_index": 80,
        "time_elapsed": 213185,
        "internal_node_id": "0.0-19.28-0.28"
    },
    {
        "rate": 0.05585244597944277,
        "trial_type": "html-keyboard-response",
        "trial_index": 81,
        "time_elapsed": 213185,
        "internal_node_id": "0.0-19.28-1.28"
    },
    {
        "rt": null,
        "stimulus": "<div style=\"background-color:#6dce98\"><h1 style=\"background-color:MediumSeaGreen\" >You won a prize! Well done!</h1><div style=\"background-color:#6dce98\"><h1 style=\"background-color:MediumSeaGreen\" >Only 5 left to go!</h1><img id=\"box\" src=\"img/prizes/duck.png\"></img><img id=\"box\" src=\"img/empty/redopenbox.png\"></img></div>",
        "key_press": null,
        "trial_type": "html-keyboard-response",
        "trial_index": 81,
        "time_elapsed": 214687,
        "internal_node_id": "0.0-19.28-1.28"
    },
    {
        "rt": 654.1150000412017,
        "stimulus": "<p>Choose a box,</p>",
        "button_pressed": 1,
        "trial_type": "html-button-response",
        "trial_index": 82,
        "time_elapsed": 215343,
        "internal_node_id": "0.0-19.29-0.29"
    },
    {
        "rate": 0.6062633344409184,
        "trial_type": "html-keyboard-response",
        "trial_index": 83,
        "time_elapsed": 215343,
        "internal_node_id": "0.0-19.29-1.29"
    },
    {
        "rt": null,
        "stimulus": "<div style=\"background-color:#6dce98\"><h1 style=\"background-color:MediumSeaGreen\" >You won a prize! Well done!</h1><div style=\"background-color:#6dce98\"><h1 style=\"background-color:MediumSeaGreen\" >Only 4 left to go!</h1><img id=\"box\" src=\"img/prizes/coins.png\"></img><img id=\"box\" src=\"img/empty/greenopenbox.png\"></img></div>",
        "key_press": null,
        "trial_type": "html-keyboard-response",
        "trial_index": 83,
        "time_elapsed": 216845,
        "internal_node_id": "0.0-19.29-1.29"
    },
    {
        "rt": 436.81999994441867,
        "stimulus": "<p>Choose a box,</p>",
        "button_pressed": 0,
        "trial_type": "html-button-response",
        "trial_index": 84,
        "time_elapsed": 217282,
        "internal_node_id": "0.0-19.30-0.30"
    },
    {
        "rate": 0.2578722698739864,
        "trial_type": "html-keyboard-response",
        "trial_index": 85,
        "time_elapsed": 217282,
        "internal_node_id": "0.0-19.30-1.30"
    },
    {
        "rt": null,
        "stimulus": "<div style=\"background-color:#ff7157\"><h1 style=\"background-color:Tomato\">Bad luck! There was no prize in the box!</h1><h1 style=\"background-color:Tomato\">Remember, you need to keep going until you have 20 prizes!</h1><img id=\"box\" src=\"img/sad/blueopenboxsadthumb.png\"></img></div>",
        "key_press": null,
        "trial_type": "html-keyboard-response",
        "trial_index": 85,
        "time_elapsed": 218784,
        "internal_node_id": "0.0-19.30-1.30"
    },
    {
        "rt": 439.6699999924749,
        "stimulus": "<p>Choose a box,</p>",
        "button_pressed": 2,
        "trial_type": "html-button-response",
        "trial_index": 86,
        "time_elapsed": 219224,
        "internal_node_id": "0.0-19.31-0.31"
    },
    {
        "rate": 0.4976566269966993,
        "trial_type": "html-keyboard-response",
        "trial_index": 87,
        "time_elapsed": 219224,
        "internal_node_id": "0.0-19.31-1.31"
    },
    {
        "rt": null,
        "stimulus": "<div style=\"background-color:#ff7157\"><h1 style=\"background-color:Tomato\">Bad luck! There was no prize in the box!</h1><h1 style=\"background-color:Tomato\">Remember, you need to keep going until you have 20 prizes!</h1><img id=\"box\" src=\"img/sad/purpleopenboxsadthumb.png\"></img></div>",
        "key_press": null,
        "trial_type": "html-keyboard-response",
        "trial_index": 87,
        "time_elapsed": 220727,
        "internal_node_id": "0.0-19.31-1.31"
    },
    {
        "rt": 352.5199999567121,
        "stimulus": "<p>Choose a box,</p>",
        "button_pressed": 2,
        "trial_type": "html-button-response",
        "trial_index": 88,
        "time_elapsed": 221084,
        "internal_node_id": "0.0-19.32-0.32"
    },
    {
        "rate": 0.4976566269966993,
        "trial_type": "html-keyboard-response",
        "trial_index": 89,
        "time_elapsed": 221084,
        "internal_node_id": "0.0-19.32-1.32"
    },
    {
        "rt": null,
        "stimulus": "<div style=\"background-color:#ff7157\"><h1 style=\"background-color:Tomato\">Bad luck! There was no prize in the box!</h1><h1 style=\"background-color:Tomato\">Remember, you need to keep going until you have 20 prizes!</h1><img id=\"box\" src=\"img/sad/purpleopenboxsadthumb.png\"></img></div>",
        "key_press": null,
        "trial_type": "html-keyboard-response",
        "trial_index": 89,
        "time_elapsed": 222586,
        "internal_node_id": "0.0-19.32-1.32"
    },
    {
        "rt": 394.8949999175966,
        "stimulus": "<p>Choose a box,</p>",
        "button_pressed": 3,
        "trial_type": "html-button-response",
        "trial_index": 90,
        "time_elapsed": 222981,
        "internal_node_id": "0.0-19.33-0.33"
    },
    {
        "rate": 0.05585244597944277,
        "trial_type": "html-keyboard-response",
        "trial_index": 91,
        "time_elapsed": 222981,
        "internal_node_id": "0.0-19.33-1.33"
    },
    {
        "rt": null,
        "stimulus": "<div style=\"background-color:#ff7157\"><h1 style=\"background-color:Tomato\">Bad luck! There was no prize in the box!</h1><h1 style=\"background-color:Tomato\">Remember, you need to keep going until you have 20 prizes!</h1><img id=\"box\" src=\"img/sad/redopenboxsadthumb.png\"></img></div>",
        "key_press": null,
        "trial_type": "html-keyboard-response",
        "trial_index": 91,
        "time_elapsed": 224483,
        "internal_node_id": "0.0-19.33-1.33"
    },
    {
        "rt": 279.7250000294298,
        "stimulus": "<p>Choose a box,</p>",
        "button_pressed": 1,
        "trial_type": "html-button-response",
        "trial_index": 92,
        "time_elapsed": 224764,
        "internal_node_id": "0.0-19.34-0.34"
    },
    {
        "rate": 0.6062633344409184,
        "trial_type": "html-keyboard-response",
        "trial_index": 93,
        "time_elapsed": 224764,
        "internal_node_id": "0.0-19.34-1.34"
    },
    {
        "rt": null,
        "stimulus": "<div style=\"background-color:#6dce98\"><h1 style=\"background-color:MediumSeaGreen\" >You won a prize! Well done!</h1><div style=\"background-color:#6dce98\"><h1 style=\"background-color:MediumSeaGreen\" >Only 3 left to go!</h1><img id=\"box\" src=\"img/prizes/beachball.png\"></img><img id=\"box\" src=\"img/empty/greenopenbox.png\"></img></div>",
        "key_press": null,
        "trial_type": "html-keyboard-response",
        "trial_index": 93,
        "time_elapsed": 226265,
        "internal_node_id": "0.0-19.34-1.34"
    },
    {
        "rt": 184.15500014089048,
        "stimulus": "<p>Choose a box,</p>",
        "button_pressed": 1,
        "trial_type": "html-button-response",
        "trial_index": 94,
        "time_elapsed": 226450,
        "internal_node_id": "0.0-19.35-0.35"
    },
    {
        "rate": 0.6062633344409184,
        "trial_type": "html-keyboard-response",
        "trial_index": 95,
        "time_elapsed": 226450,
        "internal_node_id": "0.0-19.35-1.35"
    },
    {
        "rt": null,
        "stimulus": "<div style=\"background-color:#6dce98\"><h1 style=\"background-color:MediumSeaGreen\" >You won a prize! Well done!</h1><div style=\"background-color:#6dce98\"><h1 style=\"background-color:MediumSeaGreen\" >Only 2 left to go!</h1><img id=\"box\" src=\"img/prizes/flowers.png\"></img><img id=\"box\" src=\"img/empty/greenopenbox.png\"></img></div>",
        "key_press": null,
        "trial_type": "html-keyboard-response",
        "trial_index": 95,
        "time_elapsed": 227959,
        "internal_node_id": "0.0-19.35-1.35"
    },
    {
        "rt": 763.8900000602007,
        "stimulus": "<p>Choose a box,</p>",
        "button_pressed": 1,
        "trial_type": "html-button-response",
        "trial_index": 96,
        "time_elapsed": 228723,
        "internal_node_id": "0.0-19.36-0.36"
    },
    {
        "rate": 0.6062633344409184,
        "trial_type": "html-keyboard-response",
        "trial_index": 97,
        "time_elapsed": 228723,
        "internal_node_id": "0.0-19.36-1.36"
    },
    {
        "rt": null,
        "stimulus": "<div style=\"background-color:#6dce98\"><h1 style=\"background-color:MediumSeaGreen\" >You won a prize! Well done!</h1><div style=\"background-color:#6dce98\"><h1 style=\"background-color:MediumSeaGreen\" >Only 1 left to go!</h1><img id=\"box\" src=\"img/prizes/choc.png\"></img><img id=\"box\" src=\"img/empty/greenopenbox.png\"></img></div>",
        "key_press": null,
        "trial_type": "html-keyboard-response",
        "trial_index": 97,
        "time_elapsed": 230226,
        "internal_node_id": "0.0-19.36-1.36"
    },
    {
        "rt": 784.7150000743568,
        "stimulus": "<p>Choose a box,</p>",
        "button_pressed": 0,
        "trial_type": "html-button-response",
        "trial_index": 98,
        "time_elapsed": 231011,
        "internal_node_id": "0.0-19.37-0.37"
    },
    {
        "rate": 0.2578722698739864,
        "trial_type": "html-keyboard-response",
        "trial_index": 99,
        "time_elapsed": 231012,
        "internal_node_id": "0.0-19.37-1.37"
    },
    {
        "rt": null,
        "stimulus": "<div style=\"background-color:#6dce98\"><h1 style=\"background-color:MediumSeaGreen\" >You won a prize! Well done!</h1><div style=\"background-color:#6dce98\"><h1 style=\"background-color:MediumSeaGreen\" >Only 0 left to go!</h1><img id=\"box\" src=\"img/prizes/yoyo.png\"></img><img id=\"box\" src=\"img/empty/blueopenbox.png\"></img></div>",
        "key_press": null,
        "trial_type": "html-keyboard-response",
        "trial_index": 99,
        "time_elapsed": 232513,
        "internal_node_id": "0.0-19.37-1.37"
    },
    {
        "rt": 50735.145000042394,
        "responses": "{\"Q0\":\"it was fun, a bit frustrating but very fast\",\"Q1\":\"shifting, constantly shifting. if there was a prize then try another box in case it was spent\"}",
        "trial_type": "survey-text",
        "trial_index": 100,
        "time_elapsed": 283276,
        "internal_node_id": "0.0-20.0"
    }
]