[{"view_history":"[{\"page_index\":0,\"viewing_time\":1629.6149999834597},{\"page_index\":1,\"viewing_time\":845.7700000144541},{\"page_index\":2,\"viewing_time\":2611.2799998372793},{\"page_index\":3,\"viewing_time\":2739.500000141561},{\"page_index\":4,\"viewing_time\":115104.22000009567},{\"page_index\":5,\"viewing_time\":1930.8400000445545}]","rt":124862.80999984592,"trial_type":"instructions","trial_index":0,"time_elapsed":124865,"internal_node_id":"0.0-0.0"},{"rt":5373.709999956191,"responses":"{\"Q0\":\"Yes\",\"Q1\":\"Yes\",\"Q2\":\"Yes\"}","question_order":"[0,1,2]","trial_type":"survey-multi-choice","trial_index":1,"time_elapsed":130243,"internal_node_id":"0.0-1.0-0.0"},{"rt":5835.274999961257,"responses":"{\"Q0\":\"Yes\",\"Q1\":\"Yes\",\"Q2\":\"Yes\"}","question_order":"[0,1,2]","trial_type":"survey-multi-choice","trial_index":2,"time_elapsed":136087,"internal_node_id":"0.0-2.0-0.0"},{"rt":11556.924999691546,"responses":"{\"Q0\":\"8827\"}","trial_type":"survey-text","trial_index":3,"time_elapsed":147653,"internal_node_id":"0.0-3.0"},{"rt":4817.739999853075,"responses":"{\"Q0\":\"Female\",\"Q1\":\"18-25\"}","question_order":"[0,1]","trial_type":"survey-multi-choice","trial_index":4,"time_elapsed":152472,"internal_node_id":"0.0-4.0"},{"rt":5725.910000037402,"responses":"{\"Q0\":\"Fluoxetine\"}","trial_type":"survey-text","trial_index":5,"time_elapsed":158206,"internal_node_id":"0.0-5.0"},{"view_history":"[{\"page_index\":0,\"viewing_time\":1880.2550002001226}]","rt":1880.5049997754395,"trial_type":"instructions","trial_index":6,"time_elapsed":160087,"internal_node_id":"0.0-6.0"},{"rt":43531.63499990478,"responses":"{\"Interested\":2,\"Distressed\":1,\"Excited\":0,\"Upset\":3}","question_order":"[0,1,2,3]","trial_type":"survey-likert","trial_index":7,"time_elapsed":203621,"internal_node_id":"0.0-7.0"},{"rt":11858.490000013262,"responses":"{\"Strong\":0,\"Guilty\":3,\"Scared\":2,\"Hostile\":0}","question_order":"[0,1,2,3]","trial_type":"survey-likert","trial_index":8,"time_elapsed":215488,"internal_node_id":"0.0-8.0"},{"rt":12202.710000332445,"responses":"{\"Enthusiastic\":1,\"Proud\":1,\"Irritable\":0,\"Alert\":1}","question_order":"[0,1,2,3]","trial_type":"survey-likert","trial_index":9,"time_elapsed":227699,"internal_node_id":"0.0-9.0"},{"rt":12837.790000252426,"responses":"{\"Ashamed\":0,\"Inspired\":1,\"Nervous\":4,\"Determined\":1}","question_order":"[0,1,2,3]","trial_type":"survey-likert","trial_index":10,"time_elapsed":240545,"internal_node_id":"0.0-10.0"},{"rt":8744.360000360757,"responses":"{\"Attentive\":0,\"Jittery\":3,\"Active\":0,\"Afraid\":4}","question_order":"[0,1,2,3]","trial_type":"survey-likert","trial_index":11,"time_elapsed":249296,"internal_node_id":"0.0-11.0"},{"rt":13153.11500011012,"responses":"{\"Q0\":2,\"Q1\":2,\"Q2\":3,\"Q3\":1}","question_order":"[0,1,2,3]","trial_type":"survey-likert","trial_index":12,"time_elapsed":262455,"internal_node_id":"0.0-12.0"},{"rt":18438.149999827147,"responses":"{\"Q0\":2,\"Q1\":0,\"Q2\":1,\"Q3\":0}","question_order":"[0,1,2,3]","trial_type":"survey-likert","trial_index":13,"time_elapsed":280897,"internal_node_id":"0.0-13.0"},{"rt":7474.415000062436,"responses":"{\"Q0\":3,\"Q1\":3,\"Q2\":3,\"Q3\":3}","question_order":"[0,1,2,3]","trial_type":"survey-likert","trial_index":14,"time_elapsed":288379,"internal_node_id":"0.0-14.0"},{"rt":11557.090000249445,"responses":"{\"Q0\":1,\"Q1\":0,\"Q2\":2}","question_order":"[0,1,2]","trial_type":"survey-likert","trial_index":15,"time_elapsed":299939,"internal_node_id":"0.0-15.0"},{"view_history":"[{\"page_index\":0,\"viewing_time\":2443.574999924749},{\"page_index\":1,\"viewing_time\":6126.8300004303455},{\"page_index\":2,\"viewing_time\":7957.61499973014}]","rt":16528.660000301898,"trial_type":"instructions","trial_index":16,"time_elapsed":316473,"internal_node_id":"0.0-16.0"},{"rt":820.1199998147786,"stimulus":"<p>Choose a box,</p>","button_pressed":2,"trial_type":"html-button-response","trial_index":17,"time_elapsed":317298,"internal_node_id":"0.0-17.0-0.0"},{"rate":0.4799502129162016,"trial_type":"html-keyboard-response","trial_index":18,"time_elapsed":317298,"internal_node_id":"0.0-17.0-1.0"},{"rt":null,"stimulus":"<div style=\"background-color:#ff7157\"><h1 style=\"background-color:Tomato\">Bad luck! There was no prize in the box!</h1><h1 style=\"background-color:Tomato\">Remember, you need to keep going until you have 20 prizes!</h1><img id=\"box\" src=\"img/sad/purpleopenboxsadthumb.png\"></img></div>","key_press":null,"trial_type":"html-keyboard-response","trial_index":18,"time_elapsed":318801,"internal_node_id":"0.0-17.0-1.0"},{"rt":732.350000180304,"stimulus":"<p>Choose a box,</p>","button_pressed":1,"trial_type":"html-button-response","trial_index":19,"time_elapsed":319536,"internal_node_id":"0.0-17.0-0.1"},{"rate":0.9395394117733703,"trial_type":"html-keyboard-response","trial_index":20,"time_elapsed":319536,"internal_node_id":"0.0-17.0-1.1"},{"rt":null,"stimulus":"<div style=\"background-color:#6dce98\"><h1 style=\"background-color:MediumSeaGreen\" >You won a prize! Well done!</h1><div style=\"background-color:#6dce98\"><h1 style=\"background-color:MediumSeaGreen\" >Only 19 left to go!</h1><img id=\"box\" src=\"img/prizes/coins.png\"></img><img id=\"box\" src=\"img/empty/greenopenbox.png\"></img></div>","key_press":null,"trial_type":"html-keyboard-response","trial_index":20,"time_elapsed":321038,"internal_node_id":"0.0-17.0-1.1"},{"rt":691.4550000801682,"stimulus":"<p>Choose a box,</p>","button_pressed":0,"trial_type":"html-button-response","trial_index":21,"time_elapsed":321734,"internal_node_id":"0.0-17.0-0.2"},{"rate":0.7751811184857078,"trial_type":"html-keyboard-response","trial_index":22,"time_elapsed":321734,"internal_node_id":"0.0-17.0-1.2"},{"rt":null,"stimulus":"<div style=\"background-color:#6dce98\"><h1 style=\"background-color:MediumSeaGreen\" >You won a prize! Well done!</h1><div style=\"background-color:#6dce98\"><h1 style=\"background-color:MediumSeaGreen\" >Only 18 left to go!</h1><img id=\"box\" src=\"img/prizes/yoyo.png\"></img><img id=\"box\" src=\"img/empty/blueopenbox.png\"></img></div>","key_press":null,"trial_type":"html-keyboard-response","trial_index":22,"time_elapsed":323238,"internal_node_id":"0.0-17.0-1.2"},{"view_history":"[{\"page_index\":0,\"viewing_time\":7175.270000007004}]","rt":7175.49500009045,"trial_type":"instructions","trial_index":23,"time_elapsed":330421,"internal_node_id":"0.0-18.0"},{"rt":697.3350001499057,"stimulus":"<p>Choose a box,</p>","button_pressed":2,"trial_type":"html-button-response","trial_index":24,"time_elapsed":331119,"internal_node_id":"0.0-19.0-0.0"},{"rate":0.4790721806404535,"trial_type":"html-keyboard-response","trial_index":25,"time_elapsed":331119,"internal_node_id":"0.0-19.0-1.0"},{"rt":null,"stimulus":"<div style=\"background-color:#ff7157\"><h1 style=\"background-color:Tomato\">Bad luck! There was no prize in the box!</h1><h1 style=\"background-color:Tomato\">Remember, you need to keep going until you have 20 prizes!</h1><img id=\"box\" src=\"img/sad/purpleopenboxsadthumb.png\"></img></div>","key_press":null,"trial_type":"html-keyboard-response","trial_index":25,"time_elapsed":332621,"internal_node_id":"0.0-19.0-1.0"},{"rt":594.634999986738,"stimulus":"<p>Choose a box,</p>","button_pressed":3,"trial_type":"html-button-response","trial_index":26,"time_elapsed":333219,"internal_node_id":"0.0-19.1-0.1"},{"rate":0.766970850818688,"trial_type":"html-keyboard-response","trial_index":27,"time_elapsed":333219,"internal_node_id":"0.0-19.1-1.1"},{"rt":null,"stimulus":"<div style=\"background-color:#6dce98\"><h1 style=\"background-color:MediumSeaGreen\" >You won a prize! Well done!</h1><div style=\"background-color:#6dce98\"><h1 style=\"background-color:MediumSeaGreen\" >Only 19 left to go!</h1><img id=\"box\" src=\"img/prizes/lolipop.png\"></img><img id=\"box\" src=\"img/empty/redopenbox.png\"></img></div>","key_press":null,"trial_type":"html-keyboard-response","trial_index":27,"time_elapsed":334721,"internal_node_id":"0.0-19.1-1.1"},{"rt":117.16500017791986,"stimulus":"<p>Choose a box,</p>","button_pressed":3,"trial_type":"html-button-response","trial_index":28,"time_elapsed":334841,"internal_node_id":"0.0-19.2-0.2"},{"rate":0.766970850818688,"trial_type":"html-keyboard-response","trial_index":29,"time_elapsed":334841,"internal_node_id":"0.0-19.2-1.2"},{"rt":null,"stimulus":"<div style=\"background-color:#6dce98\"><h1 style=\"background-color:MediumSeaGreen\" >You won a prize! Well done!</h1><div style=\"background-color:#6dce98\"><h1 style=\"background-color:MediumSeaGreen\" >Only 18 left to go!</h1><img id=\"box\" src=\"img/prizes/choc.png\"></img><img id=\"box\" src=\"img/empty/redopenbox.png\"></img></div>","key_press":null,"trial_type":"html-keyboard-response","trial_index":29,"time_elapsed":336343,"internal_node_id":"0.0-19.2-1.2"},{"rt":546.6700000688434,"stimulus":"<p>Choose a box,</p>","button_pressed":1,"trial_type":"html-button-response","trial_index":30,"time_elapsed":336892,"internal_node_id":"0.0-19.3-0.3"},{"rate":0.09884808434807188,"trial_type":"html-keyboard-response","trial_index":31,"time_elapsed":336892,"internal_node_id":"0.0-19.3-1.3"},{"rt":null,"stimulus":"<div style=\"background-color:#ff7157\"><h1 style=\"background-color:Tomato\">Bad luck! There was no prize in the box!</h1><h1 style=\"background-color:Tomato\">Remember, you need to keep going until you have 20 prizes!</h1><img id=\"box\" src=\"img/sad/greenopenboxsadthumb.png\"></img></div>","key_press":null,"trial_type":"html-keyboard-response","trial_index":31,"time_elapsed":338394,"internal_node_id":"0.0-19.3-1.3"},{"rt":358.49000001326203,"stimulus":"<p>Choose a box,</p>","button_pressed":1,"trial_type":"html-button-response","trial_index":32,"time_elapsed":338755,"internal_node_id":"0.0-19.4-0.4"},{"rate":0.09884808434807188,"trial_type":"html-keyboard-response","trial_index":33,"time_elapsed":338755,"internal_node_id":"0.0-19.4-1.4"},{"rt":null,"stimulus":"<div style=\"background-color:#ff7157\"><h1 style=\"background-color:Tomato\">Bad luck! There was no prize in the box!</h1><h1 style=\"background-color:Tomato\">Remember, you need to keep going until you have 20 prizes!</h1><img id=\"box\" src=\"img/sad/greenopenboxsadthumb.png\"></img></div>","key_press":null,"trial_type":"html-keyboard-response","trial_index":33,"time_elapsed":340261,"internal_node_id":"0.0-19.4-1.4"},{"rt":590.3050000779331,"stimulus":"<p>Choose a box,</p>","button_pressed":0,"trial_type":"html-button-response","trial_index":34,"time_elapsed":340854,"internal_node_id":"0.0-19.5-0.5"},{"rate":0.6666114030561566,"trial_type":"html-keyboard-response","trial_index":35,"time_elapsed":340854,"internal_node_id":"0.0-19.5-1.5"},{"rt":null,"stimulus":"<div style=\"background-color:#6dce98\"><h1 style=\"background-color:MediumSeaGreen\" >You won a prize! Well done!</h1><div style=\"background-color:#6dce98\"><h1 style=\"background-color:MediumSeaGreen\" >Only 17 left to go!</h1><img id=\"box\" src=\"img/prizes/choc.png\"></img><img id=\"box\" src=\"img/empty/blueopenbox.png\"></img></div>","key_press":null,"trial_type":"html-keyboard-response","trial_index":35,"time_elapsed":342356,"internal_node_id":"0.0-19.5-1.5"},{"rt":220.76499974355102,"stimulus":"<p>Choose a box,</p>","button_pressed":0,"trial_type":"html-button-response","trial_index":36,"time_elapsed":342579,"internal_node_id":"0.0-19.6-0.6"},{"rate":0.6666114030561566,"trial_type":"html-keyboard-response","trial_index":37,"time_elapsed":342579,"internal_node_id":"0.0-19.6-1.6"},{"rt":null,"stimulus":"<div style=\"background-color:#6dce98\"><h1 style=\"background-color:MediumSeaGreen\" >You won a prize! Well done!</h1><div style=\"background-color:#6dce98\"><h1 style=\"background-color:MediumSeaGreen\" >Only 16 left to go!</h1><img id=\"box\" src=\"img/prizes/coins.png\"></img><img id=\"box\" src=\"img/empty/blueopenbox.png\"></img></div>","key_press":null,"trial_type":"html-keyboard-response","trial_index":37,"time_elapsed":344086,"internal_node_id":"0.0-19.6-1.6"},{"rt":279.2950002476573,"stimulus":"<p>Choose a box,</p>","button_pressed":0,"trial_type":"html-button-response","trial_index":38,"time_elapsed":344367,"internal_node_id":"0.0-19.7-0.7"},{"rate":0.6666114030561566,"trial_type":"html-keyboard-response","trial_index":39,"time_elapsed":344368,"internal_node_id":"0.0-19.7-1.7"},{"rt":null,"stimulus":"<div style=\"background-color:#6dce98\"><h1 style=\"background-color:MediumSeaGreen\" >You won a prize! Well done!</h1><div style=\"background-color:#6dce98\"><h1 style=\"background-color:MediumSeaGreen\" >Only 15 left to go!</h1><img id=\"box\" src=\"img/prizes/lolipop.png\"></img><img id=\"box\" src=\"img/empty/blueopenbox.png\"></img></div>","key_press":null,"trial_type":"html-keyboard-response","trial_index":39,"time_elapsed":345871,"internal_node_id":"0.0-19.7-1.7"},{"rt":310.1849998347461,"stimulus":"<p>Choose a box,</p>","button_pressed":0,"trial_type":"html-button-response","trial_index":40,"time_elapsed":346185,"internal_node_id":"0.0-19.8-0.8"},{"rate":0.6666114030561566,"trial_type":"html-keyboard-response","trial_index":41,"time_elapsed":346186,"internal_node_id":"0.0-19.8-1.8"},{"rt":null,"stimulus":"<div style=\"background-color:#6dce98\"><h1 style=\"background-color:MediumSeaGreen\" >You won a prize! Well done!</h1><div style=\"background-color:#6dce98\"><h1 style=\"background-color:MediumSeaGreen\" >Only 14 left to go!</h1><img id=\"box\" src=\"img/prizes/flowers.png\"></img><img id=\"box\" src=\"img/empty/blueopenbox.png\"></img></div>","key_press":null,"trial_type":"html-keyboard-response","trial_index":41,"time_elapsed":347690,"internal_node_id":"0.0-19.8-1.8"},{"rt":378.8899998180568,"stimulus":"<p>Choose a box,</p>","button_pressed":0,"trial_type":"html-button-response","trial_index":42,"time_elapsed":348072,"internal_node_id":"0.0-19.9-0.9"},{"rate":0.6666114030561566,"trial_type":"html-keyboard-response","trial_index":43,"time_elapsed":348072,"internal_node_id":"0.0-19.9-1.9"},{"rt":null,"stimulus":"<div style=\"background-color:#6dce98\"><h1 style=\"background-color:MediumSeaGreen\" >You won a prize! Well done!</h1><div style=\"background-color:#6dce98\"><h1 style=\"background-color:MediumSeaGreen\" >Only 13 left to go!</h1><img id=\"box\" src=\"img/prizes/yoyo.png\"></img><img id=\"box\" src=\"img/empty/blueopenbox.png\"></img></div>","key_press":null,"trial_type":"html-keyboard-response","trial_index":43,"time_elapsed":349578,"internal_node_id":"0.0-19.9-1.9"},{"rt":381.8949996493757,"stimulus":"<p>Choose a box,</p>","button_pressed":0,"trial_type":"html-button-response","trial_index":44,"time_elapsed":349962,"internal_node_id":"0.0-19.10-0.10"},{"rate":0.6666114030561566,"trial_type":"html-keyboard-response","trial_index":45,"time_elapsed":349962,"internal_node_id":"0.0-19.10-1.10"},{"rt":null,"stimulus":"<div style=\"background-color:#6dce98\"><h1 style=\"background-color:MediumSeaGreen\" >You won a prize! Well done!</h1><div style=\"background-color:#6dce98\"><h1 style=\"background-color:MediumSeaGreen\" >Only 12 left to go!</h1><img id=\"box\" src=\"img/prizes/yoyo.png\"></img><img id=\"box\" src=\"img/empty/blueopenbox.png\"></img></div>","key_press":null,"trial_type":"html-keyboard-response","trial_index":45,"time_elapsed":351464,"internal_node_id":"0.0-19.10-1.10"},{"rt":317.5000003539026,"stimulus":"<p>Choose a box,</p>","button_pressed":0,"trial_type":"html-button-response","trial_index":46,"time_elapsed":351784,"internal_node_id":"0.0-19.11-0.11"},{"rate":0.6666114030561566,"trial_type":"html-keyboard-response","trial_index":47,"time_elapsed":351784,"internal_node_id":"0.0-19.11-1.11"},{"rt":null,"stimulus":"<div style=\"background-color:#6dce98\"><h1 style=\"background-color:MediumSeaGreen\" >You won a prize! Well done!</h1><div style=\"background-color:#6dce98\"><h1 style=\"background-color:MediumSeaGreen\" >Only 11 left to go!</h1><img id=\"box\" src=\"img/prizes/coins.png\"></img><img id=\"box\" src=\"img/empty/blueopenbox.png\"></img></div>","key_press":null,"trial_type":"html-keyboard-response","trial_index":47,"time_elapsed":353287,"internal_node_id":"0.0-19.11-1.11"},{"rt":292.9000002332032,"stimulus":"<p>Choose a box,</p>","button_pressed":0,"trial_type":"html-button-response","trial_index":48,"time_elapsed":353583,"internal_node_id":"0.0-19.12-0.12"},{"rate":0.6666114030561566,"trial_type":"html-keyboard-response","trial_index":49,"time_elapsed":353583,"internal_node_id":"0.0-19.12-1.12"},{"rt":null,"stimulus":"<div style=\"background-color:#6dce98\"><h1 style=\"background-color:MediumSeaGreen\" >You won a prize! Well done!</h1><div style=\"background-color:#6dce98\"><h1 style=\"background-color:MediumSeaGreen\" >Only 10 left to go!</h1><img id=\"box\" src=\"img/prizes/bear.png\"></img><img id=\"box\" src=\"img/empty/blueopenbox.png\"></img></div>","key_press":null,"trial_type":"html-keyboard-response","trial_index":49,"time_elapsed":355088,"internal_node_id":"0.0-19.12-1.12"},{"rt":323.6499996855855,"stimulus":"<p>Choose a box,</p>","button_pressed":0,"trial_type":"html-button-response","trial_index":50,"time_elapsed":355414,"internal_node_id":"0.0-19.13-0.13"},{"rate":0.6666114030561566,"trial_type":"html-keyboard-response","trial_index":51,"time_elapsed":355414,"internal_node_id":"0.0-19.13-1.13"},{"rt":null,"stimulus":"<div style=\"background-color:#ff7157\"><h1 style=\"background-color:Tomato\">Bad luck! There was no prize in the box!</h1><h1 style=\"background-color:Tomato\">Remember, you need to keep going until you have 20 prizes!</h1><img id=\"box\" src=\"img/sad/blueopenboxsadthumb.png\"></img></div>","key_press":null,"trial_type":"html-keyboard-response","trial_index":51,"time_elapsed":356916,"internal_node_id":"0.0-19.13-1.13"},{"rt":592.8000002168119,"stimulus":"<p>Choose a box,</p>","button_pressed":1,"trial_type":"html-button-response","trial_index":52,"time_elapsed":357512,"internal_node_id":"0.0-19.14-0.14"},{"rate":0.09884808434807188,"trial_type":"html-keyboard-response","trial_index":53,"time_elapsed":357513,"internal_node_id":"0.0-19.14-1.14"},{"rt":null,"stimulus":"<div style=\"background-color:#ff7157\"><h1 style=\"background-color:Tomato\">Bad luck! There was no prize in the box!</h1><h1 style=\"background-color:Tomato\">Remember, you need to keep going until you have 20 prizes!</h1><img id=\"box\" src=\"img/sad/greenopenboxsadthumb.png\"></img></div>","key_press":null,"trial_type":"html-keyboard-response","trial_index":53,"time_elapsed":359015,"internal_node_id":"0.0-19.14-1.14"},{"rt":413.0400000140071,"stimulus":"<p>Choose a box,</p>","button_pressed":2,"trial_type":"html-button-response","trial_index":54,"time_elapsed":359431,"internal_node_id":"0.0-19.15-0.15"},{"rate":0.4790721806404535,"trial_type":"html-keyboard-response","trial_index":55,"time_elapsed":359431,"internal_node_id":"0.0-19.15-1.15"},{"rt":null,"stimulus":"<div style=\"background-color:#6dce98\"><h1 style=\"background-color:MediumSeaGreen\" >You won a prize! Well done!</h1><div style=\"background-color:#6dce98\"><h1 style=\"background-color:MediumSeaGreen\" >Only 9 left to go!</h1><img id=\"box\" src=\"img/prizes/beachball.png\"></img><img id=\"box\" src=\"img/empty/purpleopenbox.png\"></img></div>","key_press":null,"trial_type":"html-keyboard-response","trial_index":55,"time_elapsed":360935,"internal_node_id":"0.0-19.15-1.15"},{"rt":325.79499995335937,"stimulus":"<p>Choose a box,</p>","button_pressed":2,"trial_type":"html-button-response","trial_index":56,"time_elapsed":361263,"internal_node_id":"0.0-19.16-0.16"},{"rate":0.4790721806404535,"trial_type":"html-keyboard-response","trial_index":57,"time_elapsed":361264,"internal_node_id":"0.0-19.16-1.16"},{"rt":null,"stimulus":"<div style=\"background-color:#ff7157\"><h1 style=\"background-color:Tomato\">Bad luck! There was no prize in the box!</h1><h1 style=\"background-color:Tomato\">Remember, you need to keep going until you have 20 prizes!</h1><img id=\"box\" src=\"img/sad/purpleopenboxsadthumb.png\"></img></div>","key_press":null,"trial_type":"html-keyboard-response","trial_index":57,"time_elapsed":362771,"internal_node_id":"0.0-19.16-1.16"},{"rt":627.2649997845292,"stimulus":"<p>Choose a box,</p>","button_pressed":3,"trial_type":"html-button-response","trial_index":58,"time_elapsed":363400,"internal_node_id":"0.0-19.17-0.17"},{"rate":0.766970850818688,"trial_type":"html-keyboard-response","trial_index":59,"time_elapsed":363401,"internal_node_id":"0.0-19.17-1.17"},{"rt":null,"stimulus":"<div style=\"background-color:#6dce98\"><h1 style=\"background-color:MediumSeaGreen\" >You won a prize! Well done!</h1><div style=\"background-color:#6dce98\"><h1 style=\"background-color:MediumSeaGreen\" >Only 8 left to go!</h1><img id=\"box\" src=\"img/prizes/ring.png\"></img><img id=\"box\" src=\"img/empty/redopenbox.png\"></img></div>","key_press":null,"trial_type":"html-keyboard-response","trial_index":59,"time_elapsed":364904,"internal_node_id":"0.0-19.17-1.17"},{"rt":324.7450003400445,"stimulus":"<p>Choose a box,</p>","button_pressed":3,"trial_type":"html-button-response","trial_index":60,"time_elapsed":365232,"internal_node_id":"0.0-19.18-0.18"},{"rate":0.766970850818688,"trial_type":"html-keyboard-response","trial_index":61,"time_elapsed":365232,"internal_node_id":"0.0-19.18-1.18"},{"rt":null,"stimulus":"<div style=\"background-color:#6dce98\"><h1 style=\"background-color:MediumSeaGreen\" >You won a prize! Well done!</h1><div style=\"background-color:#6dce98\"><h1 style=\"background-color:MediumSeaGreen\" >Only 7 left to go!</h1><img id=\"box\" src=\"img/prizes/flowers.png\"></img><img id=\"box\" src=\"img/empty/redopenbox.png\"></img></div>","key_press":null,"trial_type":"html-keyboard-response","trial_index":61,"time_elapsed":366738,"internal_node_id":"0.0-19.18-1.18"},{"rt":306.42500007525086,"stimulus":"<p>Choose a box,</p>","button_pressed":3,"trial_type":"html-button-response","trial_index":62,"time_elapsed":367049,"internal_node_id":"0.0-19.19-0.19"},{"rate":0.766970850818688,"trial_type":"html-keyboard-response","trial_index":63,"time_elapsed":367049,"internal_node_id":"0.0-19.19-1.19"},{"rt":null,"stimulus":"<div style=\"background-color:#ff7157\"><h1 style=\"background-color:Tomato\">Bad luck! There was no prize in the box!</h1><h1 style=\"background-color:Tomato\">Remember, you need to keep going until you have 20 prizes!</h1><img id=\"box\" src=\"img/sad/redopenboxsadthumb.png\"></img></div>","key_press":null,"trial_type":"html-keyboard-response","trial_index":63,"time_elapsed":368554,"internal_node_id":"0.0-19.19-1.19"},{"rt":694.0750000067055,"stimulus":"<p>Choose a box,</p>","button_pressed":0,"trial_type":"html-button-response","trial_index":64,"time_elapsed":369249,"internal_node_id":"0.0-19.20-0.20"},{"rate":0.6666114030561566,"trial_type":"html-keyboard-response","trial_index":65,"time_elapsed":369250,"internal_node_id":"0.0-19.20-1.20"},{"rt":null,"stimulus":"<div style=\"background-color:#6dce98\"><h1 style=\"background-color:MediumSeaGreen\" >You won a prize! Well done!</h1><div style=\"background-color:#6dce98\"><h1 style=\"background-color:MediumSeaGreen\" >Only 6 left to go!</h1><img id=\"box\" src=\"img/prizes/choc.png\"></img><img id=\"box\" src=\"img/empty/blueopenbox.png\"></img></div>","key_press":null,"trial_type":"html-keyboard-response","trial_index":65,"time_elapsed":370754,"internal_node_id":"0.0-19.20-1.20"},{"rt":160.9450001269579,"stimulus":"<p>Choose a box,</p>","button_pressed":0,"trial_type":"html-button-response","trial_index":66,"time_elapsed":370918,"internal_node_id":"0.0-19.21-0.21"},{"rate":0.6666114030561566,"trial_type":"html-keyboard-response","trial_index":67,"time_elapsed":370918,"internal_node_id":"0.0-19.21-1.21"},{"rt":null,"stimulus":"<div style=\"background-color:#6dce98\"><h1 style=\"background-color:MediumSeaGreen\" >You won a prize! Well done!</h1><div style=\"background-color:#6dce98\"><h1 style=\"background-color:MediumSeaGreen\" >Only 5 left to go!</h1><img id=\"box\" src=\"img/prizes/flowers.png\"></img><img id=\"box\" src=\"img/empty/blueopenbox.png\"></img></div>","key_press":null,"trial_type":"html-keyboard-response","trial_index":67,"time_elapsed":372422,"internal_node_id":"0.0-19.21-1.21"},{"rt":302.6299998164177,"stimulus":"<p>Choose a box,</p>","button_pressed":0,"trial_type":"html-button-response","trial_index":68,"time_elapsed":372727,"internal_node_id":"0.0-19.22-0.22"},{"rate":0.6666114030561566,"trial_type":"html-keyboard-response","trial_index":69,"time_elapsed":372727,"internal_node_id":"0.0-19.22-1.22"},{"rt":null,"stimulus":"<div style=\"background-color:#6dce98\"><h1 style=\"background-color:MediumSeaGreen\" >You won a prize! Well done!</h1><div style=\"background-color:#6dce98\"><h1 style=\"background-color:MediumSeaGreen\" >Only 4 left to go!</h1><img id=\"box\" src=\"img/prizes/duck.png\"></img><img id=\"box\" src=\"img/empty/blueopenbox.png\"></img></div>","key_press":null,"trial_type":"html-keyboard-response","trial_index":69,"time_elapsed":374231,"internal_node_id":"0.0-19.22-1.22"},{"rt":325.18000015988946,"stimulus":"<p>Choose a box,</p>","button_pressed":0,"trial_type":"html-button-response","trial_index":70,"time_elapsed":374558,"internal_node_id":"0.0-19.23-0.23"},{"rate":0.6666114030561566,"trial_type":"html-keyboard-response","trial_index":71,"time_elapsed":374558,"internal_node_id":"0.0-19.23-1.23"},{"rt":null,"stimulus":"<div style=\"background-color:#6dce98\"><h1 style=\"background-color:MediumSeaGreen\" >You won a prize! Well done!</h1><div style=\"background-color:#6dce98\"><h1 style=\"background-color:MediumSeaGreen\" >Only 3 left to go!</h1><img id=\"box\" src=\"img/prizes/lolipop.png\"></img><img id=\"box\" src=\"img/empty/blueopenbox.png\"></img></div>","key_press":null,"trial_type":"html-keyboard-response","trial_index":71,"time_elapsed":376063,"internal_node_id":"0.0-19.23-1.23"},{"rt":356.3600000925362,"stimulus":"<p>Choose a box,</p>","button_pressed":0,"trial_type":"html-button-response","trial_index":72,"time_elapsed":376422,"internal_node_id":"0.0-19.24-0.24"},{"rate":0.6666114030561566,"trial_type":"html-keyboard-response","trial_index":73,"time_elapsed":376422,"internal_node_id":"0.0-19.24-1.24"},{"rt":null,"stimulus":"<div style=\"background-color:#ff7157\"><h1 style=\"background-color:Tomato\">Bad luck! There was no prize in the box!</h1><h1 style=\"background-color:Tomato\">Remember, you need to keep going until you have 20 prizes!</h1><img id=\"box\" src=\"img/sad/blueopenboxsadthumb.png\"></img></div>","key_press":null,"trial_type":"html-keyboard-response","trial_index":73,"time_elapsed":377924,"internal_node_id":"0.0-19.24-1.24"},{"rt":429.29500015452504,"stimulus":"<p>Choose a box,</p>","button_pressed":1,"trial_type":"html-button-response","trial_index":74,"time_elapsed":378357,"internal_node_id":"0.0-19.25-0.25"},{"rate":0.09884808434807188,"trial_type":"html-keyboard-response","trial_index":75,"time_elapsed":378357,"internal_node_id":"0.0-19.25-1.25"},{"rt":null,"stimulus":"<div style=\"background-color:#ff7157\"><h1 style=\"background-color:Tomato\">Bad luck! There was no prize in the box!</h1><h1 style=\"background-color:Tomato\">Remember, you need to keep going until you have 20 prizes!</h1><img id=\"box\" src=\"img/sad/greenopenboxsadthumb.png\"></img></div>","key_press":null,"trial_type":"html-keyboard-response","trial_index":75,"time_elapsed":379862,"internal_node_id":"0.0-19.25-1.25"},{"rt":360.3199999779463,"stimulus":"<p>Choose a box,</p>","button_pressed":1,"trial_type":"html-button-response","trial_index":76,"time_elapsed":380224,"internal_node_id":"0.0-19.26-0.26"},{"rate":0.09884808434807188,"trial_type":"html-keyboard-response","trial_index":77,"time_elapsed":380224,"internal_node_id":"0.0-19.26-1.26"},{"rt":null,"stimulus":"<div style=\"background-color:#ff7157\"><h1 style=\"background-color:Tomato\">Bad luck! There was no prize in the box!</h1><h1 style=\"background-color:Tomato\">Remember, you need to keep going until you have 20 prizes!</h1><img id=\"box\" src=\"img/sad/greenopenboxsadthumb.png\"></img></div>","key_press":null,"trial_type":"html-keyboard-response","trial_index":77,"time_elapsed":381728,"internal_node_id":"0.0-19.26-1.26"},{"rt":524.184999987483,"stimulus":"<p>Choose a box,</p>","button_pressed":2,"trial_type":"html-button-response","trial_index":78,"time_elapsed":382254,"internal_node_id":"0.0-19.27-0.27"},{"rate":0.4790721806404535,"trial_type":"html-keyboard-response","trial_index":79,"time_elapsed":382254,"internal_node_id":"0.0-19.27-1.27"},{"rt":null,"stimulus":"<div style=\"background-color:#ff7157\"><h1 style=\"background-color:Tomato\">Bad luck! There was no prize in the box!</h1><h1 style=\"background-color:Tomato\">Remember, you need to keep going until you have 20 prizes!</h1><img id=\"box\" src=\"img/sad/purpleopenboxsadthumb.png\"></img></div>","key_press":null,"trial_type":"html-keyboard-response","trial_index":79,"time_elapsed":383756,"internal_node_id":"0.0-19.27-1.27"},{"rt":501.62999983876944,"stimulus":"<p>Choose a box,</p>","button_pressed":3,"trial_type":"html-button-response","trial_index":80,"time_elapsed":384260,"internal_node_id":"0.0-19.28-0.28"},{"rate":0.766970850818688,"trial_type":"html-keyboard-response","trial_index":81,"time_elapsed":384260,"internal_node_id":"0.0-19.28-1.28"},{"rt":null,"stimulus":"<div style=\"background-color:#6dce98\"><h1 style=\"background-color:MediumSeaGreen\" >You won a prize! Well done!</h1><div style=\"background-color:#6dce98\"><h1 style=\"background-color:MediumSeaGreen\" >Only 2 left to go!</h1><img id=\"box\" src=\"img/prizes/lolipop.png\"></img><img id=\"box\" src=\"img/empty/redopenbox.png\"></img></div>","key_press":null,"trial_type":"html-keyboard-response","trial_index":81,"time_elapsed":385765,"internal_node_id":"0.0-19.28-1.28"},{"rt":309.74499974399805,"stimulus":"<p>Choose a box,</p>","button_pressed":3,"trial_type":"html-button-response","trial_index":82,"time_elapsed":386078,"internal_node_id":"0.0-19.29-0.29"},{"rate":0.766970850818688,"trial_type":"html-keyboard-response","trial_index":83,"time_elapsed":386078,"internal_node_id":"0.0-19.29-1.29"},{"rt":null,"stimulus":"<div style=\"background-color:#6dce98\"><h1 style=\"background-color:MediumSeaGreen\" >You won a prize! Well done!</h1><div style=\"background-color:#6dce98\"><h1 style=\"background-color:MediumSeaGreen\" >Only 1 left to go!</h1><img id=\"box\" src=\"img/prizes/yoyo.png\"></img><img id=\"box\" src=\"img/empty/redopenbox.png\"></img></div>","key_press":null,"trial_type":"html-keyboard-response","trial_index":83,"time_elapsed":387585,"internal_node_id":"0.0-19.29-1.29"},{"rt":311.7800001055002,"stimulus":"<p>Choose a box,</p>","button_pressed":3,"trial_type":"html-button-response","trial_index":84,"time_elapsed":387899,"internal_node_id":"0.0-19.30-0.30"},{"rate":0.766970850818688,"trial_type":"html-keyboard-response","trial_index":85,"time_elapsed":387899,"internal_node_id":"0.0-19.30-1.30"},{"rt":null,"stimulus":"<div style=\"background-color:#6dce98\"><h1 style=\"background-color:MediumSeaGreen\" >You won a prize! Well done!</h1><div style=\"background-color:#6dce98\"><h1 style=\"background-color:MediumSeaGreen\" >Only 0 left to go!</h1><img id=\"box\" src=\"img/prizes/choc.png\"></img><img id=\"box\" src=\"img/empty/redopenbox.png\"></img></div>","key_press":null,"trial_type":"html-keyboard-response","trial_index":85,"time_elapsed":389404,"internal_node_id":"0.0-19.30-1.30"},{"rt":47761.67999999598,"responses":"{\"Q0\":\"I'm confused\",\"Q1\":\"At first random, then I just kept clicking on the same box until I didn't get a prize then clicked on the ones to its right instead (when I got to the red box I moved back to the blue box and so on).\"}","trial_type":"survey-text","trial_index":86,"time_elapsed":437199,"internal_node_id":"0.0-20.0"}]