[{"view_history":"[{\"page_index\":0,\"viewing_time\":12825},{\"page_index\":1,\"viewing_time\":12741},{\"page_index\":2,\"viewing_time\":4829},{\"page_index\":3,\"viewing_time\":3226},{\"page_index\":4,\"viewing_time\":6694},{\"page_index\":5,\"viewing_time\":7082}]","rt":47398,"trial_type":"instructions","trial_index":0,"time_elapsed":47400,"internal_node_id":"0.0-0.0"},{"rt":9115,"responses":"{\"Q0\":\"Yes\",\"Q1\":\"Yes\",\"Q2\":\"Yes\"}","question_order":"[0,1,2]","trial_type":"survey-multi-choice","trial_index":1,"time_elapsed":56518,"internal_node_id":"0.0-1.0-0.0"},{"rt":8920,"responses":"{\"Q0\":\"Yes\",\"Q1\":\"Yes\",\"Q2\":\"Yes\"}","question_order":"[0,1,2]","trial_type":"survey-multi-choice","trial_index":2,"time_elapsed":65440,"internal_node_id":"0.0-2.0-0.0"},{"rt":6276,"responses":"{\"Q0\":\"5f13313c1589683042b7f4dd\"}","trial_type":"survey-text","trial_index":3,"time_elapsed":71720,"internal_node_id":"0.0-3.0"},{"rt":6967,"responses":"{\"Q0\":\"Female\",\"Q1\":\"25-34\"}","question_order":"[0,1]","trial_type":"survey-multi-choice","trial_index":4,"time_elapsed":78690,"internal_node_id":"0.0-4.0"},{"rt":8847,"responses":"{\"Q0\":\"\"}","trial_type":"survey-text","trial_index":5,"time_elapsed":87540,"internal_node_id":"0.0-5.0"},{"view_history":"[{\"page_index\":0,\"viewing_time\":3556}]","rt":3556,"trial_type":"instructions","trial_index":6,"time_elapsed":91098,"internal_node_id":"0.0-6.0"},{"rt":17284,"responses":"{\"Interested\":1,\"Distressed\":4,\"Excited\":2,\"Upset\":3}","question_order":"[0,1,2,3]","trial_type":"survey-likert","trial_index":7,"time_elapsed":108384,"internal_node_id":"0.0-7.0"},{"rt":15982,"responses":"{\"Strong\":1,\"Guilty\":2,\"Scared\":3,\"Hostile\":1}","question_order":"[0,1,2,3]","trial_type":"survey-likert","trial_index":8,"time_elapsed":124370,"internal_node_id":"0.0-8.0"},{"rt":13170,"responses":"{\"Enthusiastic\":1,\"Proud\":0,\"Irritable\":1,\"Alert\":0}","question_order":"[0,1,2,3]","trial_type":"survey-likert","trial_index":9,"time_elapsed":137544,"internal_node_id":"0.0-9.0"},{"rt":11114,"responses":"{\"Ashamed\":2,\"Inspired\":3,\"Nervous\":2,\"Determined\":1}","question_order":"[0,1,2,3]","trial_type":"survey-likert","trial_index":10,"time_elapsed":148660,"internal_node_id":"0.0-10.0"},{"rt":13946,"responses":"{\"Attentive\":2,\"Jittery\":1,\"Active\":1,\"Afraid\":3}","question_order":"[0,1,2,3]","trial_type":"survey-likert","trial_index":11,"time_elapsed":162610,"internal_node_id":"0.0-11.0"},{"rt":20032,"responses":"{\"Q0\":2,\"Q1\":2,\"Q2\":0,\"Q3\":2}","question_order":"[0,1,2,3]","trial_type":"survey-likert","trial_index":12,"time_elapsed":182645,"internal_node_id":"0.0-12.0"},{"rt":14282,"responses":"{\"Q0\":1,\"Q1\":3,\"Q2\":2,\"Q3\":0}","question_order":"[0,1,2,3]","trial_type":"survey-likert","trial_index":13,"time_elapsed":196929,"internal_node_id":"0.0-13.0"},{"rt":11180,"responses":"{\"Q0\":1,\"Q1\":2,\"Q2\":2,\"Q3\":1}","question_order":"[0,1,2,3]","trial_type":"survey-likert","trial_index":14,"time_elapsed":208113,"internal_node_id":"0.0-14.0"},{"rt":11327,"responses":"{\"Q0\":0,\"Q1\":0,\"Q2\":1}","question_order":"[0,1,2]","trial_type":"survey-likert","trial_index":15,"time_elapsed":219442,"internal_node_id":"0.0-15.0"},{"view_history":"[{\"page_index\":0,\"viewing_time\":2110},{\"page_index\":1,\"viewing_time\":5149},{\"page_index\":2,\"viewing_time\":9332}]","rt":16591,"trial_type":"instructions","trial_index":16,"time_elapsed":236037,"internal_node_id":"0.0-16.0"},{"rt":1399,"stimulus":"<p>Choose a box,</p>","button_pressed":0,"trial_type":"html-button-response","trial_index":17,"time_elapsed":237438,"internal_node_id":"0.0-17.0-0.0"},{"rate":0.5853499432074061,"trial_type":"html-keyboard-response","trial_index":18,"time_elapsed":237439,"internal_node_id":"0.0-17.0-1.0"},{"rt":null,"stimulus":"<div style=\"background-color:#6dce98\"><h1 style=\"background-color:MediumSeaGreen\" >You won a prize! Well done!</h1><div style=\"background-color:#6dce98\"><h1 style=\"background-color:MediumSeaGreen\" >Only 19 left to go!</h1><img id=\"box\" src=\"img/prizes/duck.png\"></img><img id=\"box\" src=\"img/empty/blueopenbox.png\"></img></div>","key_press":null,"trial_type":"html-keyboard-response","trial_index":18,"time_elapsed":238944,"internal_node_id":"0.0-17.0-1.0"},{"rt":1239,"stimulus":"<p>Choose a box,</p>","button_pressed":3,"trial_type":"html-button-response","trial_index":19,"time_elapsed":240185,"internal_node_id":"0.0-17.0-0.1"},{"rate":0.41162628222542136,"trial_type":"html-keyboard-response","trial_index":20,"time_elapsed":240185,"internal_node_id":"0.0-17.0-1.1"},{"rt":null,"stimulus":"<div style=\"background-color:#ff7157\"><h1 style=\"background-color:Tomato\">Bad luck! There was no prize in the box!</h1><h1 style=\"background-color:Tomato\">Remember, you need to keep going until you have 20 prizes!</h1><img id=\"box\" src=\"img/sad/redopenboxsadthumb.png\"></img></div>","key_press":null,"trial_type":"html-keyboard-response","trial_index":20,"time_elapsed":241699,"internal_node_id":"0.0-17.0-1.1"},{"rt":1066,"stimulus":"<p>Choose a box,</p>","button_pressed":0,"trial_type":"html-button-response","trial_index":21,"time_elapsed":242766,"internal_node_id":"0.0-17.0-0.2"},{"rate":0.5853499432074061,"trial_type":"html-keyboard-response","trial_index":22,"time_elapsed":242766,"internal_node_id":"0.0-17.0-1.2"},{"rt":null,"stimulus":"<div style=\"background-color:#ff7157\"><h1 style=\"background-color:Tomato\">Bad luck! There was no prize in the box!</h1><h1 style=\"background-color:Tomato\">Remember, you need to keep going until you have 20 prizes!</h1><img id=\"box\" src=\"img/sad/blueopenboxsadthumb.png\"></img></div>","key_press":null,"trial_type":"html-keyboard-response","trial_index":22,"time_elapsed":244278,"internal_node_id":"0.0-17.0-1.2"},{"view_history":"[{\"page_index\":0,\"viewing_time\":6120}]","rt":6121,"trial_type":"instructions","trial_index":23,"time_elapsed":250399,"internal_node_id":"0.0-18.0"},{"rt":694,"stimulus":"<p>Choose a box,</p>","button_pressed":1,"trial_type":"html-button-response","trial_index":24,"time_elapsed":251096,"internal_node_id":"0.0-19.0-0.0"},{"rate":0.9315691440367538,"trial_type":"html-keyboard-response","trial_index":25,"time_elapsed":251096,"internal_node_id":"0.0-19.0-1.0"},{"rt":null,"stimulus":"<div style=\"background-color:#6dce98\"><h1 style=\"background-color:MediumSeaGreen\" >You won a prize! Well done!</h1><div style=\"background-color:#6dce98\"><h1 style=\"background-color:MediumSeaGreen\" >Only 19 left to go!</h1><img id=\"box\" src=\"img/prizes/ring.png\"></img><img id=\"box\" src=\"img/empty/greenopenbox.png\"></img></div>","key_press":null,"trial_type":"html-keyboard-response","trial_index":25,"time_elapsed":252609,"internal_node_id":"0.0-19.0-1.0"},{"rt":801,"stimulus":"<p>Choose a box,</p>","button_pressed":2,"trial_type":"html-button-response","trial_index":26,"time_elapsed":253412,"internal_node_id":"0.0-19.1-0.1"},{"rate":0.30411384101822436,"trial_type":"html-keyboard-response","trial_index":27,"time_elapsed":253412,"internal_node_id":"0.0-19.1-1.1"},{"rt":null,"stimulus":"<div style=\"background-color:#ff7157\"><h1 style=\"background-color:Tomato\">Bad luck! There was no prize in the box!</h1><h1 style=\"background-color:Tomato\">Remember, you need to keep going until you have 20 prizes!</h1><img id=\"box\" src=\"img/sad/purpleopenboxsadthumb.png\"></img></div>","key_press":null,"trial_type":"html-keyboard-response","trial_index":27,"time_elapsed":254927,"internal_node_id":"0.0-19.1-1.1"},{"rt":383,"stimulus":"<p>Choose a box,</p>","button_pressed":1,"trial_type":"html-button-response","trial_index":28,"time_elapsed":255311,"internal_node_id":"0.0-19.2-0.2"},{"rate":0.9315691440367538,"trial_type":"html-keyboard-response","trial_index":29,"time_elapsed":255311,"internal_node_id":"0.0-19.2-1.2"},{"rt":null,"stimulus":"<div style=\"background-color:#6dce98\"><h1 style=\"background-color:MediumSeaGreen\" >You won a prize! Well done!</h1><div style=\"background-color:#6dce98\"><h1 style=\"background-color:MediumSeaGreen\" >Only 18 left to go!</h1><img id=\"box\" src=\"img/prizes/ring.png\"></img><img id=\"box\" src=\"img/empty/greenopenbox.png\"></img></div>","key_press":null,"trial_type":"html-keyboard-response","trial_index":29,"time_elapsed":256826,"internal_node_id":"0.0-19.2-1.2"},{"rt":502,"stimulus":"<p>Choose a box,</p>","button_pressed":1,"trial_type":"html-button-response","trial_index":30,"time_elapsed":257329,"internal_node_id":"0.0-19.3-0.3"},{"rate":0.9315691440367538,"trial_type":"html-keyboard-response","trial_index":31,"time_elapsed":257330,"internal_node_id":"0.0-19.3-1.3"},{"rt":null,"stimulus":"<div style=\"background-color:#6dce98\"><h1 style=\"background-color:MediumSeaGreen\" >You won a prize! Well done!</h1><div style=\"background-color:#6dce98\"><h1 style=\"background-color:MediumSeaGreen\" >Only 17 left to go!</h1><img id=\"box\" src=\"img/prizes/bear.png\"></img><img id=\"box\" src=\"img/empty/greenopenbox.png\"></img></div>","key_press":null,"trial_type":"html-keyboard-response","trial_index":31,"time_elapsed":258845,"internal_node_id":"0.0-19.3-1.3"},{"rt":206,"stimulus":"<p>Choose a box,</p>","button_pressed":2,"trial_type":"html-button-response","trial_index":32,"time_elapsed":259053,"internal_node_id":"0.0-19.4-0.4"},{"rate":0.30411384101822436,"trial_type":"html-keyboard-response","trial_index":33,"time_elapsed":259054,"internal_node_id":"0.0-19.4-1.4"},{"rt":null,"stimulus":"<div style=\"background-color:#ff7157\"><h1 style=\"background-color:Tomato\">Bad luck! There was no prize in the box!</h1><h1 style=\"background-color:Tomato\">Remember, you need to keep going until you have 20 prizes!</h1><img id=\"box\" src=\"img/sad/purpleopenboxsadthumb.png\"></img></div>","key_press":null,"trial_type":"html-keyboard-response","trial_index":33,"time_elapsed":260560,"internal_node_id":"0.0-19.4-1.4"},{"rt":488,"stimulus":"<p>Choose a box,</p>","button_pressed":1,"trial_type":"html-button-response","trial_index":34,"time_elapsed":261049,"internal_node_id":"0.0-19.5-0.5"},{"rate":0.9315691440367538,"trial_type":"html-keyboard-response","trial_index":35,"time_elapsed":261050,"internal_node_id":"0.0-19.5-1.5"},{"rt":null,"stimulus":"<div style=\"background-color:#6dce98\"><h1 style=\"background-color:MediumSeaGreen\" >You won a prize! Well done!</h1><div style=\"background-color:#6dce98\"><h1 style=\"background-color:MediumSeaGreen\" >Only 16 left to go!</h1><img id=\"box\" src=\"img/prizes/bear.png\"></img><img id=\"box\" src=\"img/empty/greenopenbox.png\"></img></div>","key_press":null,"trial_type":"html-keyboard-response","trial_index":35,"time_elapsed":262569,"internal_node_id":"0.0-19.5-1.5"},{"rt":482,"stimulus":"<p>Choose a box,</p>","button_pressed":1,"trial_type":"html-button-response","trial_index":36,"time_elapsed":263051,"internal_node_id":"0.0-19.6-0.6"},{"rate":0.9315691440367538,"trial_type":"html-keyboard-response","trial_index":37,"time_elapsed":263051,"internal_node_id":"0.0-19.6-1.6"},{"rt":null,"stimulus":"<div style=\"background-color:#6dce98\"><h1 style=\"background-color:MediumSeaGreen\" >You won a prize! Well done!</h1><div style=\"background-color:#6dce98\"><h1 style=\"background-color:MediumSeaGreen\" >Only 15 left to go!</h1><img id=\"box\" src=\"img/prizes/duck.png\"></img><img id=\"box\" src=\"img/empty/greenopenbox.png\"></img></div>","key_press":null,"trial_type":"html-keyboard-response","trial_index":37,"time_elapsed":264570,"internal_node_id":"0.0-19.6-1.6"},{"rt":398,"stimulus":"<p>Choose a box,</p>","button_pressed":1,"trial_type":"html-button-response","trial_index":38,"time_elapsed":264969,"internal_node_id":"0.0-19.7-0.7"},{"rate":0.9315691440367538,"trial_type":"html-keyboard-response","trial_index":39,"time_elapsed":264969,"internal_node_id":"0.0-19.7-1.7"},{"rt":null,"stimulus":"<div style=\"background-color:#6dce98\"><h1 style=\"background-color:MediumSeaGreen\" >You won a prize! Well done!</h1><div style=\"background-color:#6dce98\"><h1 style=\"background-color:MediumSeaGreen\" >Only 14 left to go!</h1><img id=\"box\" src=\"img/prizes/bear.png\"></img><img id=\"box\" src=\"img/empty/greenopenbox.png\"></img></div>","key_press":null,"trial_type":"html-keyboard-response","trial_index":39,"time_elapsed":266476,"internal_node_id":"0.0-19.7-1.7"},{"rt":435,"stimulus":"<p>Choose a box,</p>","button_pressed":2,"trial_type":"html-button-response","trial_index":40,"time_elapsed":266911,"internal_node_id":"0.0-19.8-0.8"},{"rate":0.30411384101822436,"trial_type":"html-keyboard-response","trial_index":41,"time_elapsed":266911,"internal_node_id":"0.0-19.8-1.8"},{"rt":null,"stimulus":"<div style=\"background-color:#6dce98\"><h1 style=\"background-color:MediumSeaGreen\" >You won a prize! Well done!</h1><div style=\"background-color:#6dce98\"><h1 style=\"background-color:MediumSeaGreen\" >Only 13 left to go!</h1><img id=\"box\" src=\"img/prizes/beachball.png\"></img><img id=\"box\" src=\"img/empty/purpleopenbox.png\"></img></div>","key_press":null,"trial_type":"html-keyboard-response","trial_index":41,"time_elapsed":268426,"internal_node_id":"0.0-19.8-1.8"},{"rt":493,"stimulus":"<p>Choose a box,</p>","button_pressed":2,"trial_type":"html-button-response","trial_index":42,"time_elapsed":268922,"internal_node_id":"0.0-19.9-0.9"},{"rate":0.30411384101822436,"trial_type":"html-keyboard-response","trial_index":43,"time_elapsed":268922,"internal_node_id":"0.0-19.9-1.9"},{"rt":null,"stimulus":"<div style=\"background-color:#6dce98\"><h1 style=\"background-color:MediumSeaGreen\" >You won a prize! Well done!</h1><div style=\"background-color:#6dce98\"><h1 style=\"background-color:MediumSeaGreen\" >Only 12 left to go!</h1><img id=\"box\" src=\"img/prizes/bear.png\"></img><img id=\"box\" src=\"img/empty/purpleopenbox.png\"></img></div>","key_press":null,"trial_type":"html-keyboard-response","trial_index":43,"time_elapsed":270428,"internal_node_id":"0.0-19.9-1.9"},{"rt":462,"stimulus":"<p>Choose a box,</p>","button_pressed":2,"trial_type":"html-button-response","trial_index":44,"time_elapsed":270891,"internal_node_id":"0.0-19.10-0.10"},{"rate":0.30411384101822436,"trial_type":"html-keyboard-response","trial_index":45,"time_elapsed":270891,"internal_node_id":"0.0-19.10-1.10"},{"rt":null,"stimulus":"<div style=\"background-color:#ff7157\"><h1 style=\"background-color:Tomato\">Bad luck! There was no prize in the box!</h1><h1 style=\"background-color:Tomato\">Remember, you need to keep going until you have 20 prizes!</h1><img id=\"box\" src=\"img/sad/purpleopenboxsadthumb.png\"></img></div>","key_press":null,"trial_type":"html-keyboard-response","trial_index":45,"time_elapsed":272409,"internal_node_id":"0.0-19.10-1.10"},{"rt":636,"stimulus":"<p>Choose a box,</p>","button_pressed":0,"trial_type":"html-button-response","trial_index":46,"time_elapsed":273045,"internal_node_id":"0.0-19.11-0.11"},{"rate":0.44955644670700434,"trial_type":"html-keyboard-response","trial_index":47,"time_elapsed":273045,"internal_node_id":"0.0-19.11-1.11"},{"rt":null,"stimulus":"<div style=\"background-color:#ff7157\"><h1 style=\"background-color:Tomato\">Bad luck! There was no prize in the box!</h1><h1 style=\"background-color:Tomato\">Remember, you need to keep going until you have 20 prizes!</h1><img id=\"box\" src=\"img/sad/blueopenboxsadthumb.png\"></img></div>","key_press":null,"trial_type":"html-keyboard-response","trial_index":47,"time_elapsed":274549,"internal_node_id":"0.0-19.11-1.11"},{"rt":444,"stimulus":"<p>Choose a box,</p>","button_pressed":0,"trial_type":"html-button-response","trial_index":48,"time_elapsed":274993,"internal_node_id":"0.0-19.12-0.12"},{"rate":0.44955644670700434,"trial_type":"html-keyboard-response","trial_index":49,"time_elapsed":274993,"internal_node_id":"0.0-19.12-1.12"},{"rt":null,"stimulus":"<div style=\"background-color:#ff7157\"><h1 style=\"background-color:Tomato\">Bad luck! There was no prize in the box!</h1><h1 style=\"background-color:Tomato\">Remember, you need to keep going until you have 20 prizes!</h1><img id=\"box\" src=\"img/sad/blueopenboxsadthumb.png\"></img></div>","key_press":null,"trial_type":"html-keyboard-response","trial_index":49,"time_elapsed":276509,"internal_node_id":"0.0-19.12-1.12"},{"rt":451,"stimulus":"<p>Choose a box,</p>","button_pressed":0,"trial_type":"html-button-response","trial_index":50,"time_elapsed":276961,"internal_node_id":"0.0-19.13-0.13"},{"rate":0.44955644670700434,"trial_type":"html-keyboard-response","trial_index":51,"time_elapsed":276962,"internal_node_id":"0.0-19.13-1.13"},{"rt":null,"stimulus":"<div style=\"background-color:#ff7157\"><h1 style=\"background-color:Tomato\">Bad luck! There was no prize in the box!</h1><h1 style=\"background-color:Tomato\">Remember, you need to keep going until you have 20 prizes!</h1><img id=\"box\" src=\"img/sad/blueopenboxsadthumb.png\"></img></div>","key_press":null,"trial_type":"html-keyboard-response","trial_index":51,"time_elapsed":278469,"internal_node_id":"0.0-19.13-1.13"},{"rt":663,"stimulus":"<p>Choose a box,</p>","button_pressed":3,"trial_type":"html-button-response","trial_index":52,"time_elapsed":279133,"internal_node_id":"0.0-19.14-0.14"},{"rate":0.6805049591948972,"trial_type":"html-keyboard-response","trial_index":53,"time_elapsed":279133,"internal_node_id":"0.0-19.14-1.14"},{"rt":null,"stimulus":"<div style=\"background-color:#6dce98\"><h1 style=\"background-color:MediumSeaGreen\" >You won a prize! Well done!</h1><div style=\"background-color:#6dce98\"><h1 style=\"background-color:MediumSeaGreen\" >Only 11 left to go!</h1><img id=\"box\" src=\"img/prizes/coins.png\"></img><img id=\"box\" src=\"img/empty/redopenbox.png\"></img></div>","key_press":null,"trial_type":"html-keyboard-response","trial_index":53,"time_elapsed":280642,"internal_node_id":"0.0-19.14-1.14"},{"rt":558,"stimulus":"<p>Choose a box,</p>","button_pressed":1,"trial_type":"html-button-response","trial_index":54,"time_elapsed":281201,"internal_node_id":"0.0-19.15-0.15"},{"rate":0.9315691440367538,"trial_type":"html-keyboard-response","trial_index":55,"time_elapsed":281201,"internal_node_id":"0.0-19.15-1.15"},{"rt":null,"stimulus":"<div style=\"background-color:#6dce98\"><h1 style=\"background-color:MediumSeaGreen\" >You won a prize! Well done!</h1><div style=\"background-color:#6dce98\"><h1 style=\"background-color:MediumSeaGreen\" >Only 10 left to go!</h1><img id=\"box\" src=\"img/prizes/coins.png\"></img><img id=\"box\" src=\"img/empty/greenopenbox.png\"></img></div>","key_press":null,"trial_type":"html-keyboard-response","trial_index":55,"time_elapsed":282709,"internal_node_id":"0.0-19.15-1.15"},{"rt":440,"stimulus":"<p>Choose a box,</p>","button_pressed":1,"trial_type":"html-button-response","trial_index":56,"time_elapsed":283152,"internal_node_id":"0.0-19.16-0.16"},{"rate":0.9315691440367538,"trial_type":"html-keyboard-response","trial_index":57,"time_elapsed":283152,"internal_node_id":"0.0-19.16-1.16"},{"rt":null,"stimulus":"<div style=\"background-color:#6dce98\"><h1 style=\"background-color:MediumSeaGreen\" >You won a prize! Well done!</h1><div style=\"background-color:#6dce98\"><h1 style=\"background-color:MediumSeaGreen\" >Only 9 left to go!</h1><img id=\"box\" src=\"img/prizes/coins.png\"></img><img id=\"box\" src=\"img/empty/greenopenbox.png\"></img></div>","key_press":null,"trial_type":"html-keyboard-response","trial_index":57,"time_elapsed":284658,"internal_node_id":"0.0-19.16-1.16"},{"rt":414,"stimulus":"<p>Choose a box,</p>","button_pressed":1,"trial_type":"html-button-response","trial_index":58,"time_elapsed":285073,"internal_node_id":"0.0-19.17-0.17"},{"rate":0.9315691440367538,"trial_type":"html-keyboard-response","trial_index":59,"time_elapsed":285073,"internal_node_id":"0.0-19.17-1.17"},{"rt":null,"stimulus":"<div style=\"background-color:#ff7157\"><h1 style=\"background-color:Tomato\">Bad luck! There was no prize in the box!</h1><h1 style=\"background-color:Tomato\">Remember, you need to keep going until you have 20 prizes!</h1><img id=\"box\" src=\"img/sad/greenopenboxsadthumb.png\"></img></div>","key_press":null,"trial_type":"html-keyboard-response","trial_index":59,"time_elapsed":286575,"internal_node_id":"0.0-19.17-1.17"},{"rt":642,"stimulus":"<p>Choose a box,</p>","button_pressed":2,"trial_type":"html-button-response","trial_index":60,"time_elapsed":287217,"internal_node_id":"0.0-19.18-0.18"},{"rate":0.30411384101822436,"trial_type":"html-keyboard-response","trial_index":61,"time_elapsed":287217,"internal_node_id":"0.0-19.18-1.18"},{"rt":null,"stimulus":"<div style=\"background-color:#ff7157\"><h1 style=\"background-color:Tomato\">Bad luck! There was no prize in the box!</h1><h1 style=\"background-color:Tomato\">Remember, you need to keep going until you have 20 prizes!</h1><img id=\"box\" src=\"img/sad/purpleopenboxsadthumb.png\"></img></div>","key_press":null,"trial_type":"html-keyboard-response","trial_index":61,"time_elapsed":288729,"internal_node_id":"0.0-19.18-1.18"},{"rt":351,"stimulus":"<p>Choose a box,</p>","button_pressed":0,"trial_type":"html-button-response","trial_index":62,"time_elapsed":289081,"internal_node_id":"0.0-19.19-0.19"},{"rate":0.44955644670700434,"trial_type":"html-keyboard-response","trial_index":63,"time_elapsed":289081,"internal_node_id":"0.0-19.19-1.19"},{"rt":null,"stimulus":"<div style=\"background-color:#6dce98\"><h1 style=\"background-color:MediumSeaGreen\" >You won a prize! Well done!</h1><div style=\"background-color:#6dce98\"><h1 style=\"background-color:MediumSeaGreen\" >Only 8 left to go!</h1><img id=\"box\" src=\"img/prizes/bear.png\"></img><img id=\"box\" src=\"img/empty/blueopenbox.png\"></img></div>","key_press":null,"trial_type":"html-keyboard-response","trial_index":63,"time_elapsed":290588,"internal_node_id":"0.0-19.19-1.19"},{"rt":351,"stimulus":"<p>Choose a box,</p>","button_pressed":0,"trial_type":"html-button-response","trial_index":64,"time_elapsed":290941,"internal_node_id":"0.0-19.20-0.20"},{"rate":0.44955644670700434,"trial_type":"html-keyboard-response","trial_index":65,"time_elapsed":290941,"internal_node_id":"0.0-19.20-1.20"},{"rt":null,"stimulus":"<div style=\"background-color:#ff7157\"><h1 style=\"background-color:Tomato\">Bad luck! There was no prize in the box!</h1><h1 style=\"background-color:Tomato\">Remember, you need to keep going until you have 20 prizes!</h1><img id=\"box\" src=\"img/sad/blueopenboxsadthumb.png\"></img></div>","key_press":null,"trial_type":"html-keyboard-response","trial_index":65,"time_elapsed":292449,"internal_node_id":"0.0-19.20-1.20"},{"rt":467,"stimulus":"<p>Choose a box,</p>","button_pressed":1,"trial_type":"html-button-response","trial_index":66,"time_elapsed":292917,"internal_node_id":"0.0-19.21-0.21"},{"rate":0.9315691440367538,"trial_type":"html-keyboard-response","trial_index":67,"time_elapsed":292918,"internal_node_id":"0.0-19.21-1.21"},{"rt":null,"stimulus":"<div style=\"background-color:#6dce98\"><h1 style=\"background-color:MediumSeaGreen\" >You won a prize! Well done!</h1><div style=\"background-color:#6dce98\"><h1 style=\"background-color:MediumSeaGreen\" >Only 7 left to go!</h1><img id=\"box\" src=\"img/prizes/flowers.png\"></img><img id=\"box\" src=\"img/empty/greenopenbox.png\"></img></div>","key_press":null,"trial_type":"html-keyboard-response","trial_index":67,"time_elapsed":294429,"internal_node_id":"0.0-19.21-1.21"},{"rt":603,"stimulus":"<p>Choose a box,</p>","button_pressed":1,"trial_type":"html-button-response","trial_index":68,"time_elapsed":295033,"internal_node_id":"0.0-19.22-0.22"},{"rate":0.9315691440367538,"trial_type":"html-keyboard-response","trial_index":69,"time_elapsed":295033,"internal_node_id":"0.0-19.22-1.22"},{"rt":null,"stimulus":"<div style=\"background-color:#6dce98\"><h1 style=\"background-color:MediumSeaGreen\" >You won a prize! Well done!</h1><div style=\"background-color:#6dce98\"><h1 style=\"background-color:MediumSeaGreen\" >Only 6 left to go!</h1><img id=\"box\" src=\"img/prizes/flowers.png\"></img><img id=\"box\" src=\"img/empty/greenopenbox.png\"></img></div>","key_press":null,"trial_type":"html-keyboard-response","trial_index":69,"time_elapsed":296549,"internal_node_id":"0.0-19.22-1.22"},{"rt":392,"stimulus":"<p>Choose a box,</p>","button_pressed":1,"trial_type":"html-button-response","trial_index":70,"time_elapsed":296943,"internal_node_id":"0.0-19.23-0.23"},{"rate":0.9315691440367538,"trial_type":"html-keyboard-response","trial_index":71,"time_elapsed":296943,"internal_node_id":"0.0-19.23-1.23"},{"rt":null,"stimulus":"<div style=\"background-color:#6dce98\"><h1 style=\"background-color:MediumSeaGreen\" >You won a prize! Well done!</h1><div style=\"background-color:#6dce98\"><h1 style=\"background-color:MediumSeaGreen\" >Only 5 left to go!</h1><img id=\"box\" src=\"img/prizes/flowers.png\"></img><img id=\"box\" src=\"img/empty/greenopenbox.png\"></img></div>","key_press":null,"trial_type":"html-keyboard-response","trial_index":71,"time_elapsed":298449,"internal_node_id":"0.0-19.23-1.23"},{"rt":238,"stimulus":"<p>Choose a box,</p>","button_pressed":1,"trial_type":"html-button-response","trial_index":72,"time_elapsed":298688,"internal_node_id":"0.0-19.24-0.24"},{"rate":0.9315691440367538,"trial_type":"html-keyboard-response","trial_index":73,"time_elapsed":298688,"internal_node_id":"0.0-19.24-1.24"},{"rt":null,"stimulus":"<div style=\"background-color:#6dce98\"><h1 style=\"background-color:MediumSeaGreen\" >You won a prize! Well done!</h1><div style=\"background-color:#6dce98\"><h1 style=\"background-color:MediumSeaGreen\" >Only 4 left to go!</h1><img id=\"box\" src=\"img/prizes/choc.png\"></img><img id=\"box\" src=\"img/empty/greenopenbox.png\"></img></div>","key_press":null,"trial_type":"html-keyboard-response","trial_index":73,"time_elapsed":300189,"internal_node_id":"0.0-19.24-1.24"},{"rt":602,"stimulus":"<p>Choose a box,</p>","button_pressed":1,"trial_type":"html-button-response","trial_index":74,"time_elapsed":300792,"internal_node_id":"0.0-19.25-0.25"},{"rate":0.9315691440367538,"trial_type":"html-keyboard-response","trial_index":75,"time_elapsed":300792,"internal_node_id":"0.0-19.25-1.25"},{"rt":null,"stimulus":"<div style=\"background-color:#6dce98\"><h1 style=\"background-color:MediumSeaGreen\" >You won a prize! Well done!</h1><div style=\"background-color:#6dce98\"><h1 style=\"background-color:MediumSeaGreen\" >Only 3 left to go!</h1><img id=\"box\" src=\"img/prizes/choc.png\"></img><img id=\"box\" src=\"img/empty/greenopenbox.png\"></img></div>","key_press":null,"trial_type":"html-keyboard-response","trial_index":75,"time_elapsed":302309,"internal_node_id":"0.0-19.25-1.25"},{"rt":424,"stimulus":"<p>Choose a box,</p>","button_pressed":1,"trial_type":"html-button-response","trial_index":76,"time_elapsed":302736,"internal_node_id":"0.0-19.26-0.26"},{"rate":0.9315691440367538,"trial_type":"html-keyboard-response","trial_index":77,"time_elapsed":302736,"internal_node_id":"0.0-19.26-1.26"},{"rt":null,"stimulus":"<div style=\"background-color:#ff7157\"><h1 style=\"background-color:Tomato\">Bad luck! There was no prize in the box!</h1><h1 style=\"background-color:Tomato\">Remember, you need to keep going until you have 20 prizes!</h1><img id=\"box\" src=\"img/sad/greenopenboxsadthumb.png\"></img></div>","key_press":null,"trial_type":"html-keyboard-response","trial_index":77,"time_elapsed":304241,"internal_node_id":"0.0-19.26-1.26"},{"rt":505,"stimulus":"<p>Choose a box,</p>","button_pressed":1,"trial_type":"html-button-response","trial_index":78,"time_elapsed":304747,"internal_node_id":"0.0-19.27-0.27"},{"rate":0.9315691440367538,"trial_type":"html-keyboard-response","trial_index":79,"time_elapsed":304747,"internal_node_id":"0.0-19.27-1.27"},{"rt":null,"stimulus":"<div style=\"background-color:#6dce98\"><h1 style=\"background-color:MediumSeaGreen\" >You won a prize! Well done!</h1><div style=\"background-color:#6dce98\"><h1 style=\"background-color:MediumSeaGreen\" >Only 2 left to go!</h1><img id=\"box\" src=\"img/prizes/lolipop.png\"></img><img id=\"box\" src=\"img/empty/greenopenbox.png\"></img></div>","key_press":null,"trial_type":"html-keyboard-response","trial_index":79,"time_elapsed":306259,"internal_node_id":"0.0-19.27-1.27"},{"rt":393,"stimulus":"<p>Choose a box,</p>","button_pressed":1,"trial_type":"html-button-response","trial_index":80,"time_elapsed":306653,"internal_node_id":"0.0-19.28-0.28"},{"rate":0.9315691440367538,"trial_type":"html-keyboard-response","trial_index":81,"time_elapsed":306653,"internal_node_id":"0.0-19.28-1.28"},{"rt":null,"stimulus":"<div style=\"background-color:#6dce98\"><h1 style=\"background-color:MediumSeaGreen\" >You won a prize! Well done!</h1><div style=\"background-color:#6dce98\"><h1 style=\"background-color:MediumSeaGreen\" >Only 1 left to go!</h1><img id=\"box\" src=\"img/prizes/flowers.png\"></img><img id=\"box\" src=\"img/empty/greenopenbox.png\"></img></div>","key_press":null,"trial_type":"html-keyboard-response","trial_index":81,"time_elapsed":308159,"internal_node_id":"0.0-19.28-1.28"},{"rt":665,"stimulus":"<p>Choose a box,</p>","button_pressed":1,"trial_type":"html-button-response","trial_index":82,"time_elapsed":308825,"internal_node_id":"0.0-19.29-0.29"},{"rate":0.9315691440367538,"trial_type":"html-keyboard-response","trial_index":83,"time_elapsed":308825,"internal_node_id":"0.0-19.29-1.29"},{"rt":null,"stimulus":"<div style=\"background-color:#6dce98\"><h1 style=\"background-color:MediumSeaGreen\" >You won a prize! Well done!</h1><div style=\"background-color:#6dce98\"><h1 style=\"background-color:MediumSeaGreen\" >Only 0 left to go!</h1><img id=\"box\" src=\"img/prizes/beachball.png\"></img><img id=\"box\" src=\"img/empty/greenopenbox.png\"></img></div>","key_press":null,"trial_type":"html-keyboard-response","trial_index":83,"time_elapsed":310339,"internal_node_id":"0.0-19.29-1.29"},{"rt":85568,"responses":"{\"Q0\":\"I don't understand the correlation between choosing the boxes and assessing my anxiety symptoms beforehand, but you know more about analyzing this data than I do.\",\"Q1\":\"I focused on the color green because it was giving me more gifts. But I also gave chances to purple box because purple is my favorite color.\"}","trial_type":"survey-text","trial_index":84,"time_elapsed":395917,"internal_node_id":"0.0-20.0"}]