[{"view_history":"[{\"page_index\":0,\"viewing_time\":34275},{\"page_index\":1,\"viewing_time\":33317},{\"page_index\":2,\"viewing_time\":23598.000000000015},{\"page_index\":3,\"viewing_time\":15939.999999999985},{\"page_index\":4,\"viewing_time\":14231},{\"page_index\":5,\"viewing_time\":15651}]","rt":137014,"trial_type":"instructions","trial_index":0,"time_elapsed":137019,"internal_node_id":"0.0-0.0"},{"rt":14431,"responses":"{\"Q0\":\"Yes\",\"Q1\":\"Yes\",\"Q2\":\"Yes\"}","question_order":"[0,1,2]","trial_type":"survey-multi-choice","trial_index":1,"time_elapsed":151455,"internal_node_id":"0.0-1.0-0.0"},{"rt":14652.00000000003,"responses":"{\"Q0\":\"Yes\",\"Q1\":\"Yes\",\"Q2\":\"Yes\"}","question_order":"[0,1,2]","trial_type":"survey-multi-choice","trial_index":2,"time_elapsed":166110,"internal_node_id":"0.0-2.0-0.0"},{"rt":11500,"responses":"{\"Q0\":\"5c79951406b11700170db767\"}","trial_type":"survey-text","trial_index":3,"time_elapsed":177635,"internal_node_id":"0.0-3.0"},{"rt":5737,"responses":"{\"Q0\":\"Female\",\"Q1\":\"35-44\"}","question_order":"[0,1]","trial_type":"survey-multi-choice","trial_index":4,"time_elapsed":183381,"internal_node_id":"0.0-4.0"},{"rt":7324.999999999971,"responses":"{\"Q0\":\"\"}","trial_type":"survey-text","trial_index":5,"time_elapsed":190726,"internal_node_id":"0.0-5.0"},{"view_history":"[{\"page_index\":0,\"viewing_time\":7020}]","rt":7021,"trial_type":"instructions","trial_index":6,"time_elapsed":197749,"internal_node_id":"0.0-6.0"},{"rt":16310,"responses":"{\"Interested\":1,\"Distressed\":3,\"Excited\":1,\"Upset\":2}","question_order":"[0,1,2,3]","trial_type":"survey-likert","trial_index":7,"time_elapsed":214064,"internal_node_id":"0.0-7.0"},{"rt":31628.99999999997,"responses":"{\"Strong\":2,\"Guilty\":1,\"Scared\":2,\"Hostile\":0}","question_order":"[0,1,2,3]","trial_type":"survey-likert","trial_index":8,"time_elapsed":245705,"internal_node_id":"0.0-8.0"},{"rt":10781.00000000003,"responses":"{\"Enthusiastic\":1,\"Proud\":1,\"Irritable\":2,\"Alert\":3}","question_order":"[0,1,2,3]","trial_type":"survey-likert","trial_index":9,"time_elapsed":256494,"internal_node_id":"0.0-9.0"},{"rt":16450,"responses":"{\"Ashamed\":0,\"Inspired\":1,\"Nervous\":2,\"Determined\":1}","question_order":"[0,1,2,3]","trial_type":"survey-likert","trial_index":10,"time_elapsed":272951,"internal_node_id":"0.0-10.0"},{"rt":15078,"responses":"{\"Attentive\":1,\"Jittery\":2,\"Active\":1,\"Afraid\":2}","question_order":"[0,1,2,3]","trial_type":"survey-likert","trial_index":11,"time_elapsed":288033,"internal_node_id":"0.0-11.0"},{"rt":33266,"responses":"{\"Q0\":2,\"Q1\":1,\"Q2\":1,\"Q3\":2}","question_order":"[0,1,2,3]","trial_type":"survey-likert","trial_index":12,"time_elapsed":321304,"internal_node_id":"0.0-12.0"},{"rt":26158,"responses":"{\"Q0\":1,\"Q1\":2,\"Q2\":1,\"Q3\":2}","question_order":"[0,1,2,3]","trial_type":"survey-likert","trial_index":13,"time_elapsed":347466,"internal_node_id":"0.0-13.0"},{"rt":17796,"responses":"{\"Q0\":2,\"Q1\":1,\"Q2\":3,\"Q3\":3}","question_order":"[0,1,2,3]","trial_type":"survey-likert","trial_index":14,"time_elapsed":365267,"internal_node_id":"0.0-14.0"},{"rt":16245.999999999942,"responses":"{\"Q0\":1,\"Q1\":2,\"Q2\":1}","question_order":"[0,1,2]","trial_type":"survey-likert","trial_index":15,"time_elapsed":381517,"internal_node_id":"0.0-15.0"},{"view_history":"[{\"page_index\":0,\"viewing_time\":1764.0000000000582},{\"page_index\":1,\"viewing_time\":12887.999999999942},{\"page_index\":2,\"viewing_time\":10313}]","rt":24966,"trial_type":"instructions","trial_index":16,"time_elapsed":406489,"internal_node_id":"0.0-16.0"},{"rt":6514,"stimulus":"<p>Choose a box,</p>","button_pressed":1,"trial_type":"html-button-response","trial_index":17,"time_elapsed":413008,"internal_node_id":"0.0-17.0-0.0"},{"rate":0.7068458294562705,"trial_type":"html-keyboard-response","trial_index":18,"time_elapsed":413010,"internal_node_id":"0.0-17.0-1.0"},{"rt":null,"stimulus":"<div style=\"background-color:#6dce98\"><h1 style=\"background-color:MediumSeaGreen\" >You won a prize! Well done!</h1><div style=\"background-color:#6dce98\"><h1 style=\"background-color:MediumSeaGreen\" >Only 19 left to go!</h1><img id=\"box\" src=\"img/prizes/yoyo.png\"></img><img id=\"box\" src=\"img/empty/greenopenbox.png\"></img></div>","key_press":null,"trial_type":"html-keyboard-response","trial_index":18,"time_elapsed":414518,"internal_node_id":"0.0-17.0-1.0"},{"rt":1450.0000000000582,"stimulus":"<p>Choose a box,</p>","button_pressed":1,"trial_type":"html-button-response","trial_index":19,"time_elapsed":415972,"internal_node_id":"0.0-17.0-0.1"},{"rate":0.7068458294562705,"trial_type":"html-keyboard-response","trial_index":20,"time_elapsed":415973,"internal_node_id":"0.0-17.0-1.1"},{"rt":null,"stimulus":"<div style=\"background-color:#6dce98\"><h1 style=\"background-color:MediumSeaGreen\" >You won a prize! Well done!</h1><div style=\"background-color:#6dce98\"><h1 style=\"background-color:MediumSeaGreen\" >Only 18 left to go!</h1><img id=\"box\" src=\"img/prizes/bear.png\"></img><img id=\"box\" src=\"img/empty/greenopenbox.png\"></img></div>","key_press":null,"trial_type":"html-keyboard-response","trial_index":20,"time_elapsed":417478,"internal_node_id":"0.0-17.0-1.1"},{"rt":2291,"stimulus":"<p>Choose a box,</p>","button_pressed":3,"trial_type":"html-button-response","trial_index":21,"time_elapsed":419773,"internal_node_id":"0.0-17.0-0.2"},{"rate":0.1984319489074014,"trial_type":"html-keyboard-response","trial_index":22,"time_elapsed":419773,"internal_node_id":"0.0-17.0-1.2"},{"rt":null,"stimulus":"<div style=\"background-color:#ff7157\"><h1 style=\"background-color:Tomato\">Bad luck! There was no prize in the box!</h1><h1 style=\"background-color:Tomato\">Remember, you need to keep going until you have 20 prizes!</h1><img id=\"box\" src=\"img/sad/redopenboxsadthumb.png\"></img></div>","key_press":null,"trial_type":"html-keyboard-response","trial_index":22,"time_elapsed":421277,"internal_node_id":"0.0-17.0-1.2"},{"view_history":"[{\"page_index\":0,\"viewing_time\":1590.9999999999418}]","rt":1591.9999999999418,"trial_type":"instructions","trial_index":23,"time_elapsed":422874,"internal_node_id":"0.0-18.0"},{"rt":1497,"stimulus":"<p>Choose a box,</p>","button_pressed":1,"trial_type":"html-button-response","trial_index":24,"time_elapsed":424373,"internal_node_id":"0.0-19.0-0.0"},{"rate":0.8016906937646904,"trial_type":"html-keyboard-response","trial_index":25,"time_elapsed":424374,"internal_node_id":"0.0-19.0-1.0"},{"rt":null,"stimulus":"<div style=\"background-color:#6dce98\"><h1 style=\"background-color:MediumSeaGreen\" >You won a prize! Well done!</h1><div style=\"background-color:#6dce98\"><h1 style=\"background-color:MediumSeaGreen\" >Only 19 left to go!</h1><img id=\"box\" src=\"img/prizes/lolipop.png\"></img><img id=\"box\" src=\"img/empty/greenopenbox.png\"></img></div>","key_press":null,"trial_type":"html-keyboard-response","trial_index":25,"time_elapsed":425879,"internal_node_id":"0.0-19.0-1.0"},{"rt":876.9999999999418,"stimulus":"<p>Choose a box,</p>","button_pressed":2,"trial_type":"html-button-response","trial_index":26,"time_elapsed":426760,"internal_node_id":"0.0-19.1-0.1"},{"rate":0.41886124368247435,"trial_type":"html-keyboard-response","trial_index":27,"time_elapsed":426761,"internal_node_id":"0.0-19.1-1.1"},{"rt":null,"stimulus":"<div style=\"background-color:#ff7157\"><h1 style=\"background-color:Tomato\">Bad luck! There was no prize in the box!</h1><h1 style=\"background-color:Tomato\">Remember, you need to keep going until you have 20 prizes!</h1><img id=\"box\" src=\"img/sad/purpleopenboxsadthumb.png\"></img></div>","key_press":null,"trial_type":"html-keyboard-response","trial_index":27,"time_elapsed":428265,"internal_node_id":"0.0-19.1-1.1"},{"rt":788,"stimulus":"<p>Choose a box,</p>","button_pressed":1,"trial_type":"html-button-response","trial_index":28,"time_elapsed":429058,"internal_node_id":"0.0-19.2-0.2"},{"rate":0.8016906937646904,"trial_type":"html-keyboard-response","trial_index":29,"time_elapsed":429058,"internal_node_id":"0.0-19.2-1.2"},{"rt":null,"stimulus":"<div style=\"background-color:#6dce98\"><h1 style=\"background-color:MediumSeaGreen\" >You won a prize! Well done!</h1><div style=\"background-color:#6dce98\"><h1 style=\"background-color:MediumSeaGreen\" >Only 18 left to go!</h1><img id=\"box\" src=\"img/prizes/yoyo.png\"></img><img id=\"box\" src=\"img/empty/greenopenbox.png\"></img></div>","key_press":null,"trial_type":"html-keyboard-response","trial_index":29,"time_elapsed":430562,"internal_node_id":"0.0-19.2-1.2"},{"rt":622,"stimulus":"<p>Choose a box,</p>","button_pressed":1,"trial_type":"html-button-response","trial_index":30,"time_elapsed":431189,"internal_node_id":"0.0-19.3-0.3"},{"rate":0.8016906937646904,"trial_type":"html-keyboard-response","trial_index":31,"time_elapsed":431189,"internal_node_id":"0.0-19.3-1.3"},{"rt":null,"stimulus":"<div style=\"background-color:#ff7157\"><h1 style=\"background-color:Tomato\">Bad luck! There was no prize in the box!</h1><h1 style=\"background-color:Tomato\">Remember, you need to keep going until you have 20 prizes!</h1><img id=\"box\" src=\"img/sad/greenopenboxsadthumb.png\"></img></div>","key_press":null,"trial_type":"html-keyboard-response","trial_index":31,"time_elapsed":432693,"internal_node_id":"0.0-19.3-1.3"},{"rt":727,"stimulus":"<p>Choose a box,</p>","button_pressed":0,"trial_type":"html-button-response","trial_index":32,"time_elapsed":433424,"internal_node_id":"0.0-19.4-0.4"},{"rate":0.2332906876992589,"trial_type":"html-keyboard-response","trial_index":33,"time_elapsed":433425,"internal_node_id":"0.0-19.4-1.4"},{"rt":null,"stimulus":"<div style=\"background-color:#ff7157\"><h1 style=\"background-color:Tomato\">Bad luck! There was no prize in the box!</h1><h1 style=\"background-color:Tomato\">Remember, you need to keep going until you have 20 prizes!</h1><img id=\"box\" src=\"img/sad/blueopenboxsadthumb.png\"></img></div>","key_press":null,"trial_type":"html-keyboard-response","trial_index":33,"time_elapsed":434930,"internal_node_id":"0.0-19.4-1.4"},{"rt":705,"stimulus":"<p>Choose a box,</p>","button_pressed":1,"trial_type":"html-button-response","trial_index":34,"time_elapsed":435640,"internal_node_id":"0.0-19.5-0.5"},{"rate":0.8016906937646904,"trial_type":"html-keyboard-response","trial_index":35,"time_elapsed":435640,"internal_node_id":"0.0-19.5-1.5"},{"rt":null,"stimulus":"<div style=\"background-color:#6dce98\"><h1 style=\"background-color:MediumSeaGreen\" >You won a prize! Well done!</h1><div style=\"background-color:#6dce98\"><h1 style=\"background-color:MediumSeaGreen\" >Only 17 left to go!</h1><img id=\"box\" src=\"img/prizes/duck.png\"></img><img id=\"box\" src=\"img/empty/greenopenbox.png\"></img></div>","key_press":null,"trial_type":"html-keyboard-response","trial_index":35,"time_elapsed":437144,"internal_node_id":"0.0-19.5-1.5"},{"rt":643,"stimulus":"<p>Choose a box,</p>","button_pressed":1,"trial_type":"html-button-response","trial_index":36,"time_elapsed":437791,"internal_node_id":"0.0-19.6-0.6"},{"rate":0.8016906937646904,"trial_type":"html-keyboard-response","trial_index":37,"time_elapsed":437793,"internal_node_id":"0.0-19.6-1.6"},{"rt":null,"stimulus":"<div style=\"background-color:#6dce98\"><h1 style=\"background-color:MediumSeaGreen\" >You won a prize! Well done!</h1><div style=\"background-color:#6dce98\"><h1 style=\"background-color:MediumSeaGreen\" >Only 16 left to go!</h1><img id=\"box\" src=\"img/prizes/choc.png\"></img><img id=\"box\" src=\"img/empty/greenopenbox.png\"></img></div>","key_press":null,"trial_type":"html-keyboard-response","trial_index":37,"time_elapsed":439298,"internal_node_id":"0.0-19.6-1.6"},{"rt":690,"stimulus":"<p>Choose a box,</p>","button_pressed":1,"trial_type":"html-button-response","trial_index":38,"time_elapsed":439990,"internal_node_id":"0.0-19.7-0.7"},{"rate":0.8016906937646904,"trial_type":"html-keyboard-response","trial_index":39,"time_elapsed":439990,"internal_node_id":"0.0-19.7-1.7"},{"rt":null,"stimulus":"<div style=\"background-color:#6dce98\"><h1 style=\"background-color:MediumSeaGreen\" >You won a prize! Well done!</h1><div style=\"background-color:#6dce98\"><h1 style=\"background-color:MediumSeaGreen\" >Only 15 left to go!</h1><img id=\"box\" src=\"img/prizes/duck.png\"></img><img id=\"box\" src=\"img/empty/greenopenbox.png\"></img></div>","key_press":null,"trial_type":"html-keyboard-response","trial_index":39,"time_elapsed":441494,"internal_node_id":"0.0-19.7-1.7"},{"rt":793,"stimulus":"<p>Choose a box,</p>","button_pressed":3,"trial_type":"html-button-response","trial_index":40,"time_elapsed":442291,"internal_node_id":"0.0-19.8-0.8"},{"rate":0.6257803106929982,"trial_type":"html-keyboard-response","trial_index":41,"time_elapsed":442291,"internal_node_id":"0.0-19.8-1.8"},{"rt":null,"stimulus":"<div style=\"background-color:#ff7157\"><h1 style=\"background-color:Tomato\">Bad luck! There was no prize in the box!</h1><h1 style=\"background-color:Tomato\">Remember, you need to keep going until you have 20 prizes!</h1><img id=\"box\" src=\"img/sad/redopenboxsadthumb.png\"></img></div>","key_press":null,"trial_type":"html-keyboard-response","trial_index":41,"time_elapsed":443795,"internal_node_id":"0.0-19.8-1.8"},{"rt":673,"stimulus":"<p>Choose a box,</p>","button_pressed":1,"trial_type":"html-button-response","trial_index":42,"time_elapsed":444473,"internal_node_id":"0.0-19.9-0.9"},{"rate":0.8016906937646904,"trial_type":"html-keyboard-response","trial_index":43,"time_elapsed":444474,"internal_node_id":"0.0-19.9-1.9"},{"rt":null,"stimulus":"<div style=\"background-color:#6dce98\"><h1 style=\"background-color:MediumSeaGreen\" >You won a prize! Well done!</h1><div style=\"background-color:#6dce98\"><h1 style=\"background-color:MediumSeaGreen\" >Only 14 left to go!</h1><img id=\"box\" src=\"img/prizes/choc.png\"></img><img id=\"box\" src=\"img/empty/greenopenbox.png\"></img></div>","key_press":null,"trial_type":"html-keyboard-response","trial_index":43,"time_elapsed":445977,"internal_node_id":"0.0-19.9-1.9"},{"rt":576.0000000000582,"stimulus":"<p>Choose a box,</p>","button_pressed":1,"trial_type":"html-button-response","trial_index":44,"time_elapsed":446556,"internal_node_id":"0.0-19.10-0.10"},{"rate":0.8016906937646904,"trial_type":"html-keyboard-response","trial_index":45,"time_elapsed":446557,"internal_node_id":"0.0-19.10-1.10"},{"rt":null,"stimulus":"<div style=\"background-color:#6dce98\"><h1 style=\"background-color:MediumSeaGreen\" >You won a prize! Well done!</h1><div style=\"background-color:#6dce98\"><h1 style=\"background-color:MediumSeaGreen\" >Only 13 left to go!</h1><img id=\"box\" src=\"img/prizes/beachball.png\"></img><img id=\"box\" src=\"img/empty/greenopenbox.png\"></img></div>","key_press":null,"trial_type":"html-keyboard-response","trial_index":45,"time_elapsed":448060,"internal_node_id":"0.0-19.10-1.10"},{"rt":662,"stimulus":"<p>Choose a box,</p>","button_pressed":1,"trial_type":"html-button-response","trial_index":46,"time_elapsed":448725,"internal_node_id":"0.0-19.11-0.11"},{"rate":0.8016906937646904,"trial_type":"html-keyboard-response","trial_index":47,"time_elapsed":448726,"internal_node_id":"0.0-19.11-1.11"},{"rt":null,"stimulus":"<div style=\"background-color:#6dce98\"><h1 style=\"background-color:MediumSeaGreen\" >You won a prize! Well done!</h1><div style=\"background-color:#6dce98\"><h1 style=\"background-color:MediumSeaGreen\" >Only 12 left to go!</h1><img id=\"box\" src=\"img/prizes/flowers.png\"></img><img id=\"box\" src=\"img/empty/greenopenbox.png\"></img></div>","key_press":null,"trial_type":"html-keyboard-response","trial_index":47,"time_elapsed":450231,"internal_node_id":"0.0-19.11-1.11"},{"rt":622.9999999999418,"stimulus":"<p>Choose a box,</p>","button_pressed":1,"trial_type":"html-button-response","trial_index":48,"time_elapsed":450858,"internal_node_id":"0.0-19.12-0.12"},{"rate":0.8016906937646904,"trial_type":"html-keyboard-response","trial_index":49,"time_elapsed":450858,"internal_node_id":"0.0-19.12-1.12"},{"rt":null,"stimulus":"<div style=\"background-color:#6dce98\"><h1 style=\"background-color:MediumSeaGreen\" >You won a prize! Well done!</h1><div style=\"background-color:#6dce98\"><h1 style=\"background-color:MediumSeaGreen\" >Only 11 left to go!</h1><img id=\"box\" src=\"img/prizes/yoyo.png\"></img><img id=\"box\" src=\"img/empty/greenopenbox.png\"></img></div>","key_press":null,"trial_type":"html-keyboard-response","trial_index":49,"time_elapsed":452361,"internal_node_id":"0.0-19.12-1.12"},{"rt":575,"stimulus":"<p>Choose a box,</p>","button_pressed":1,"trial_type":"html-button-response","trial_index":50,"time_elapsed":452940,"internal_node_id":"0.0-19.13-0.13"},{"rate":0.8016906937646904,"trial_type":"html-keyboard-response","trial_index":51,"time_elapsed":452941,"internal_node_id":"0.0-19.13-1.13"},{"rt":null,"stimulus":"<div style=\"background-color:#6dce98\"><h1 style=\"background-color:MediumSeaGreen\" >You won a prize! Well done!</h1><div style=\"background-color:#6dce98\"><h1 style=\"background-color:MediumSeaGreen\" >Only 10 left to go!</h1><img id=\"box\" src=\"img/prizes/choc.png\"></img><img id=\"box\" src=\"img/empty/greenopenbox.png\"></img></div>","key_press":null,"trial_type":"html-keyboard-response","trial_index":51,"time_elapsed":454444,"internal_node_id":"0.0-19.13-1.13"},{"rt":560,"stimulus":"<p>Choose a box,</p>","button_pressed":1,"trial_type":"html-button-response","trial_index":52,"time_elapsed":455008,"internal_node_id":"0.0-19.14-0.14"},{"rate":0.8016906937646904,"trial_type":"html-keyboard-response","trial_index":53,"time_elapsed":455008,"internal_node_id":"0.0-19.14-1.14"},{"rt":null,"stimulus":"<div style=\"background-color:#6dce98\"><h1 style=\"background-color:MediumSeaGreen\" >You won a prize! Well done!</h1><div style=\"background-color:#6dce98\"><h1 style=\"background-color:MediumSeaGreen\" >Only 9 left to go!</h1><img id=\"box\" src=\"img/prizes/coins.png\"></img><img id=\"box\" src=\"img/empty/greenopenbox.png\"></img></div>","key_press":null,"trial_type":"html-keyboard-response","trial_index":53,"time_elapsed":456513,"internal_node_id":"0.0-19.14-1.14"},{"rt":659,"stimulus":"<p>Choose a box,</p>","button_pressed":1,"trial_type":"html-button-response","trial_index":54,"time_elapsed":457176,"internal_node_id":"0.0-19.15-0.15"},{"rate":0.8016906937646904,"trial_type":"html-keyboard-response","trial_index":55,"time_elapsed":457176,"internal_node_id":"0.0-19.15-1.15"},{"rt":null,"stimulus":"<div style=\"background-color:#6dce98\"><h1 style=\"background-color:MediumSeaGreen\" >You won a prize! Well done!</h1><div style=\"background-color:#6dce98\"><h1 style=\"background-color:MediumSeaGreen\" >Only 8 left to go!</h1><img id=\"box\" src=\"img/prizes/yoyo.png\"></img><img id=\"box\" src=\"img/empty/greenopenbox.png\"></img></div>","key_press":null,"trial_type":"html-keyboard-response","trial_index":55,"time_elapsed":458680,"internal_node_id":"0.0-19.15-1.15"},{"rt":558,"stimulus":"<p>Choose a box,</p>","button_pressed":1,"trial_type":"html-button-response","trial_index":56,"time_elapsed":459241,"internal_node_id":"0.0-19.16-0.16"},{"rate":0.8016906937646904,"trial_type":"html-keyboard-response","trial_index":57,"time_elapsed":459241,"internal_node_id":"0.0-19.16-1.16"},{"rt":null,"stimulus":"<div style=\"background-color:#6dce98\"><h1 style=\"background-color:MediumSeaGreen\" >You won a prize! Well done!</h1><div style=\"background-color:#6dce98\"><h1 style=\"background-color:MediumSeaGreen\" >Only 7 left to go!</h1><img id=\"box\" src=\"img/prizes/duck.png\"></img><img id=\"box\" src=\"img/empty/greenopenbox.png\"></img></div>","key_press":null,"trial_type":"html-keyboard-response","trial_index":57,"time_elapsed":460745,"internal_node_id":"0.0-19.16-1.16"},{"rt":543,"stimulus":"<p>Choose a box,</p>","button_pressed":1,"trial_type":"html-button-response","trial_index":58,"time_elapsed":461291,"internal_node_id":"0.0-19.17-0.17"},{"rate":0.8016906937646904,"trial_type":"html-keyboard-response","trial_index":59,"time_elapsed":461291,"internal_node_id":"0.0-19.17-1.17"},{"rt":null,"stimulus":"<div style=\"background-color:#ff7157\"><h1 style=\"background-color:Tomato\">Bad luck! There was no prize in the box!</h1><h1 style=\"background-color:Tomato\">Remember, you need to keep going until you have 20 prizes!</h1><img id=\"box\" src=\"img/sad/greenopenboxsadthumb.png\"></img></div>","key_press":null,"trial_type":"html-keyboard-response","trial_index":59,"time_elapsed":462796,"internal_node_id":"0.0-19.17-1.17"},{"rt":708.0000000000582,"stimulus":"<p>Choose a box,</p>","button_pressed":1,"trial_type":"html-button-response","trial_index":60,"time_elapsed":463509,"internal_node_id":"0.0-19.18-0.18"},{"rate":0.8016906937646904,"trial_type":"html-keyboard-response","trial_index":61,"time_elapsed":463509,"internal_node_id":"0.0-19.18-1.18"},{"rt":null,"stimulus":"<div style=\"background-color:#6dce98\"><h1 style=\"background-color:MediumSeaGreen\" >You won a prize! Well done!</h1><div style=\"background-color:#6dce98\"><h1 style=\"background-color:MediumSeaGreen\" >Only 6 left to go!</h1><img id=\"box\" src=\"img/prizes/flowers.png\"></img><img id=\"box\" src=\"img/empty/greenopenbox.png\"></img></div>","key_press":null,"trial_type":"html-keyboard-response","trial_index":61,"time_elapsed":465013,"internal_node_id":"0.0-19.18-1.18"},{"rt":676,"stimulus":"<p>Choose a box,</p>","button_pressed":1,"trial_type":"html-button-response","trial_index":62,"time_elapsed":465692,"internal_node_id":"0.0-19.19-0.19"},{"rate":0.8016906937646904,"trial_type":"html-keyboard-response","trial_index":63,"time_elapsed":465692,"internal_node_id":"0.0-19.19-1.19"},{"rt":null,"stimulus":"<div style=\"background-color:#6dce98\"><h1 style=\"background-color:MediumSeaGreen\" >You won a prize! Well done!</h1><div style=\"background-color:#6dce98\"><h1 style=\"background-color:MediumSeaGreen\" >Only 5 left to go!</h1><img id=\"box\" src=\"img/prizes/coins.png\"></img><img id=\"box\" src=\"img/empty/greenopenbox.png\"></img></div>","key_press":null,"trial_type":"html-keyboard-response","trial_index":63,"time_elapsed":467196,"internal_node_id":"0.0-19.19-1.19"},{"rt":644,"stimulus":"<p>Choose a box,</p>","button_pressed":1,"trial_type":"html-button-response","trial_index":64,"time_elapsed":467843,"internal_node_id":"0.0-19.20-0.20"},{"rate":0.8016906937646904,"trial_type":"html-keyboard-response","trial_index":65,"time_elapsed":467843,"internal_node_id":"0.0-19.20-1.20"},{"rt":null,"stimulus":"<div style=\"background-color:#6dce98\"><h1 style=\"background-color:MediumSeaGreen\" >You won a prize! Well done!</h1><div style=\"background-color:#6dce98\"><h1 style=\"background-color:MediumSeaGreen\" >Only 4 left to go!</h1><img id=\"box\" src=\"img/prizes/duck.png\"></img><img id=\"box\" src=\"img/empty/greenopenbox.png\"></img></div>","key_press":null,"trial_type":"html-keyboard-response","trial_index":65,"time_elapsed":469347,"internal_node_id":"0.0-19.20-1.20"},{"rt":558,"stimulus":"<p>Choose a box,</p>","button_pressed":1,"trial_type":"html-button-response","trial_index":66,"time_elapsed":469908,"internal_node_id":"0.0-19.21-0.21"},{"rate":0.8016906937646904,"trial_type":"html-keyboard-response","trial_index":67,"time_elapsed":469909,"internal_node_id":"0.0-19.21-1.21"},{"rt":null,"stimulus":"<div style=\"background-color:#ff7157\"><h1 style=\"background-color:Tomato\">Bad luck! There was no prize in the box!</h1><h1 style=\"background-color:Tomato\">Remember, you need to keep going until you have 20 prizes!</h1><img id=\"box\" src=\"img/sad/greenopenboxsadthumb.png\"></img></div>","key_press":null,"trial_type":"html-keyboard-response","trial_index":67,"time_elapsed":471413,"internal_node_id":"0.0-19.21-1.21"},{"rt":676.0000000000582,"stimulus":"<p>Choose a box,</p>","button_pressed":1,"trial_type":"html-button-response","trial_index":68,"time_elapsed":472093,"internal_node_id":"0.0-19.22-0.22"},{"rate":0.8016906937646904,"trial_type":"html-keyboard-response","trial_index":69,"time_elapsed":472093,"internal_node_id":"0.0-19.22-1.22"},{"rt":null,"stimulus":"<div style=\"background-color:#6dce98\"><h1 style=\"background-color:MediumSeaGreen\" >You won a prize! Well done!</h1><div style=\"background-color:#6dce98\"><h1 style=\"background-color:MediumSeaGreen\" >Only 3 left to go!</h1><img id=\"box\" src=\"img/prizes/choc.png\"></img><img id=\"box\" src=\"img/empty/greenopenbox.png\"></img></div>","key_press":null,"trial_type":"html-keyboard-response","trial_index":69,"time_elapsed":473597,"internal_node_id":"0.0-19.22-1.22"},{"rt":589,"stimulus":"<p>Choose a box,</p>","button_pressed":1,"trial_type":"html-button-response","trial_index":70,"time_elapsed":474189,"internal_node_id":"0.0-19.23-0.23"},{"rate":0.8016906937646904,"trial_type":"html-keyboard-response","trial_index":71,"time_elapsed":474190,"internal_node_id":"0.0-19.23-1.23"},{"rt":null,"stimulus":"<div style=\"background-color:#6dce98\"><h1 style=\"background-color:MediumSeaGreen\" >You won a prize! Well done!</h1><div style=\"background-color:#6dce98\"><h1 style=\"background-color:MediumSeaGreen\" >Only 2 left to go!</h1><img id=\"box\" src=\"img/prizes/ring.png\"></img><img id=\"box\" src=\"img/empty/greenopenbox.png\"></img></div>","key_press":null,"trial_type":"html-keyboard-response","trial_index":71,"time_elapsed":475694,"internal_node_id":"0.0-19.23-1.23"},{"rt":713,"stimulus":"<p>Choose a box,</p>","button_pressed":1,"trial_type":"html-button-response","trial_index":72,"time_elapsed":476410,"internal_node_id":"0.0-19.24-0.24"},{"rate":0.8016906937646904,"trial_type":"html-keyboard-response","trial_index":73,"time_elapsed":476410,"internal_node_id":"0.0-19.24-1.24"},{"rt":null,"stimulus":"<div style=\"background-color:#6dce98\"><h1 style=\"background-color:MediumSeaGreen\" >You won a prize! Well done!</h1><div style=\"background-color:#6dce98\"><h1 style=\"background-color:MediumSeaGreen\" >Only 1 left to go!</h1><img id=\"box\" src=\"img/prizes/choc.png\"></img><img id=\"box\" src=\"img/empty/greenopenbox.png\"></img></div>","key_press":null,"trial_type":"html-keyboard-response","trial_index":73,"time_elapsed":477914,"internal_node_id":"0.0-19.24-1.24"},{"rt":625,"stimulus":"<p>Choose a box,</p>","button_pressed":1,"trial_type":"html-button-response","trial_index":74,"time_elapsed":478543,"internal_node_id":"0.0-19.25-0.25"},{"rate":0.8016906937646904,"trial_type":"html-keyboard-response","trial_index":75,"time_elapsed":478543,"internal_node_id":"0.0-19.25-1.25"},{"rt":null,"stimulus":"<div style=\"background-color:#6dce98\"><h1 style=\"background-color:MediumSeaGreen\" >You won a prize! Well done!</h1><div style=\"background-color:#6dce98\"><h1 style=\"background-color:MediumSeaGreen\" >Only 0 left to go!</h1><img id=\"box\" src=\"img/prizes/ring.png\"></img><img id=\"box\" src=\"img/empty/greenopenbox.png\"></img></div>","key_press":null,"trial_type":"html-keyboard-response","trial_index":75,"time_elapsed":480048,"internal_node_id":"0.0-19.25-1.25"},{"rt":89253.00000000012,"responses":"{\"Q0\":\"I dont understand it.\",\"Q1\":\"I choose the same position all the time. I started with the one in the middle and noticed I won so I kept picking that one.\"}","trial_type":"survey-text","trial_index":76,"time_elapsed":569312,"internal_node_id":"0.0-20.0"}]