[{"view_history":"[{\"page_index\":0,\"viewing_time\":16654.899999999543},{\"page_index\":1,\"viewing_time\":2928.0999999991764},{\"page_index\":2,\"viewing_time\":1843.5000000008586},{\"page_index\":3,\"viewing_time\":5610.000000000582},{\"page_index\":4,\"viewing_time\":1918.3999999986554},{\"page_index\":5,\"viewing_time\":1852.3000000004686}]","rt":30808.999999999287,"trial_type":"instructions","trial_index":0,"time_elapsed":30814,"internal_node_id":"0.0-0.0"},{"rt":6118.000000000393,"responses":"{\"Q0\":\"Yes\",\"Q1\":\"Yes\",\"Q2\":\"Yes\"}","question_order":"[0,1,2]","trial_type":"survey-multi-choice","trial_index":1,"time_elapsed":36937,"internal_node_id":"0.0-1.0-0.0"},{"rt":32792.199999999866,"responses":"{\"Q0\":\"No\",\"Q1\":\"Yes\",\"Q2\":\"Yes\"}","question_order":"[0,1,2]","trial_type":"survey-multi-choice","trial_index":2,"time_elapsed":69735,"internal_node_id":"0.0-2.0-0.0"},{"rt":5709.800000000541,"responses":"{\"Q0\":\"Yes\",\"Q1\":\"Yes\",\"Q2\":\"Yes\"}","question_order":"[0,1,2]","trial_type":"survey-multi-choice","trial_index":3,"time_elapsed":89046,"internal_node_id":"0.0-2.1-0.1"},{"rt":3860.399999999572,"responses":"{\"Q0\":\"5bf6d2302a901f00012e8cac\"}","trial_type":"survey-text","trial_index":4,"time_elapsed":92911,"internal_node_id":"0.0-3.0"},{"rt":5312.300000001414,"responses":"{\"Q0\":\"Female\",\"Q1\":\"25-34\"}","question_order":"[0,1]","trial_type":"survey-multi-choice","trial_index":5,"time_elapsed":98226,"internal_node_id":"0.0-4.0"},{"rt":19863.499999999476,"responses":"{\"Q0\":\"Vortioxetine \"}","trial_type":"survey-text","trial_index":6,"time_elapsed":118093,"internal_node_id":"0.0-5.0"},{"view_history":"[{\"page_index\":0,\"viewing_time\":4928.70000000039}]","rt":4929.09999999938,"trial_type":"instructions","trial_index":7,"time_elapsed":123023,"internal_node_id":"0.0-6.0"},{"rt":15398.200000001452,"responses":"{\"Interested\":1,\"Distressed\":1,\"Excited\":3,\"Upset\":1}","question_order":"[0,1,2,3]","trial_type":"survey-likert","trial_index":8,"time_elapsed":138427,"internal_node_id":"0.0-7.0"},{"rt":15615.600000001024,"responses":"{\"Strong\":2,\"Guilty\":2,\"Scared\":0,\"Hostile\":0}","question_order":"[0,1,2,3]","trial_type":"survey-likert","trial_index":9,"time_elapsed":154049,"internal_node_id":"0.0-8.0"},{"rt":26470.999999999563,"responses":"{\"Enthusiastic\":2,\"Proud\":2,\"Irritable\":2,\"Alert\":3}","question_order":"[0,1,2,3]","trial_type":"survey-likert","trial_index":10,"time_elapsed":180524,"internal_node_id":"0.0-9.0"},{"rt":22723.799999999756,"responses":"{\"Ashamed\":1,\"Inspired\":2,\"Nervous\":2,\"Determined\":2}","question_order":"[0,1,2,3]","trial_type":"survey-likert","trial_index":11,"time_elapsed":203252,"internal_node_id":"0.0-10.0"},{"rt":5487.799999998941,"responses":"{\"Attentive\":2,\"Jittery\":3,\"Active\":2,\"Afraid\":1}","question_order":"[0,1,2,3]","trial_type":"survey-likert","trial_index":12,"time_elapsed":208743,"internal_node_id":"0.0-11.0"},{"rt":11925.000000001077,"responses":"{\"Q0\":2,\"Q1\":1,\"Q2\":3,\"Q3\":2}","question_order":"[0,1,2,3]","trial_type":"survey-likert","trial_index":13,"time_elapsed":220672,"internal_node_id":"0.0-12.0"},{"rt":17702.799999999115,"responses":"{\"Q0\":2,\"Q1\":2,\"Q2\":1,\"Q3\":2}","question_order":"[0,1,2,3]","trial_type":"survey-likert","trial_index":14,"time_elapsed":238379,"internal_node_id":"0.0-13.0"},{"rt":4911.200000000477,"responses":"{\"Q0\":2,\"Q1\":2,\"Q2\":1,\"Q3\":2}","question_order":"[0,1,2,3]","trial_type":"survey-likert","trial_index":15,"time_elapsed":243296,"internal_node_id":"0.0-14.0"},{"rt":3398.300000000745,"responses":"{\"Q0\":2,\"Q1\":2,\"Q2\":2}","question_order":"[0,1,2]","trial_type":"survey-likert","trial_index":16,"time_elapsed":246705,"internal_node_id":"0.0-15.0"},{"view_history":"[{\"page_index\":0,\"viewing_time\":2870.1999999994005},{\"page_index\":1,\"viewing_time\":39933.20000000129},{\"page_index\":2,\"viewing_time\":3294.8999999989755}]","rt":46098.79999999973,"trial_type":"instructions","trial_index":17,"time_elapsed":292825,"internal_node_id":"0.0-16.0"},{"rt":1182.6000000000931,"stimulus":"<p>Choose a box,</p>","button_pressed":1,"trial_type":"html-button-response","trial_index":18,"time_elapsed":294012,"internal_node_id":"0.0-17.0-0.0"},{"rate":0.12532671884184732,"trial_type":"html-keyboard-response","trial_index":19,"time_elapsed":294013,"internal_node_id":"0.0-17.0-1.0"},{"rt":null,"stimulus":"<div style=\"background-color:#ff7157\"><h1 style=\"background-color:Tomato\">Bad luck! There was no prize in the box!</h1><h1 style=\"background-color:Tomato\">Remember, you need to keep going until you have 20 prizes!</h1><img id=\"box\" src=\"img/sad/greenopenboxsadthumb.png\"></img></div>","key_press":null,"trial_type":"html-keyboard-response","trial_index":19,"time_elapsed":295516,"internal_node_id":"0.0-17.0-1.0"},{"rt":1259.0999999992782,"stimulus":"<p>Choose a box,</p>","button_pressed":3,"trial_type":"html-button-response","trial_index":20,"time_elapsed":296782,"internal_node_id":"0.0-17.0-0.1"},{"rate":0.49449106830416567,"trial_type":"html-keyboard-response","trial_index":21,"time_elapsed":296783,"internal_node_id":"0.0-17.0-1.1"},{"rt":null,"stimulus":"<div style=\"background-color:#ff7157\"><h1 style=\"background-color:Tomato\">Bad luck! There was no prize in the box!</h1><h1 style=\"background-color:Tomato\">Remember, you need to keep going until you have 20 prizes!</h1><img id=\"box\" src=\"img/sad/redopenboxsadthumb.png\"></img></div>","key_press":null,"trial_type":"html-keyboard-response","trial_index":21,"time_elapsed":298285,"internal_node_id":"0.0-17.0-1.1"},{"rt":805.000000000291,"stimulus":"<p>Choose a box,</p>","button_pressed":2,"trial_type":"html-button-response","trial_index":22,"time_elapsed":299094,"internal_node_id":"0.0-17.0-0.2"},{"rate":0.9476317430906636,"trial_type":"html-keyboard-response","trial_index":23,"time_elapsed":299094,"internal_node_id":"0.0-17.0-1.2"},{"rt":null,"stimulus":"<div style=\"background-color:#6dce98\"><h1 style=\"background-color:MediumSeaGreen\" >You won a prize! Well done!</h1><div style=\"background-color:#6dce98\"><h1 style=\"background-color:MediumSeaGreen\" >Only 19 left to go!</h1><img id=\"box\" src=\"img/prizes/beachball.png\"></img><img id=\"box\" src=\"img/empty/purpleopenbox.png\"></img></div>","key_press":null,"trial_type":"html-keyboard-response","trial_index":23,"time_elapsed":300597,"internal_node_id":"0.0-17.0-1.2"},{"view_history":"[{\"page_index\":0,\"viewing_time\":1502.1000000015483}]","rt":1502.8000000002212,"trial_type":"instructions","trial_index":24,"time_elapsed":302101,"internal_node_id":"0.0-18.0"},{"rt":1179.2000000005355,"stimulus":"<p>Choose a box,</p>","button_pressed":0,"trial_type":"html-button-response","trial_index":25,"time_elapsed":303284,"internal_node_id":"0.0-19.0-0.0"},{"rate":0.6728921180532863,"trial_type":"html-keyboard-response","trial_index":26,"time_elapsed":303284,"internal_node_id":"0.0-19.0-1.0"},{"rt":null,"stimulus":"<div style=\"background-color:#ff7157\"><h1 style=\"background-color:Tomato\">Bad luck! There was no prize in the box!</h1><h1 style=\"background-color:Tomato\">Remember, you need to keep going until you have 20 prizes!</h1><img id=\"box\" src=\"img/sad/blueopenboxsadthumb.png\"></img></div>","key_press":null,"trial_type":"html-keyboard-response","trial_index":26,"time_elapsed":304787,"internal_node_id":"0.0-19.0-1.0"},{"rt":560.2999999991735,"stimulus":"<p>Choose a box,</p>","button_pressed":2,"trial_type":"html-button-response","trial_index":27,"time_elapsed":305350,"internal_node_id":"0.0-19.1-0.1"},{"rate":0.5142475124233861,"trial_type":"html-keyboard-response","trial_index":28,"time_elapsed":305351,"internal_node_id":"0.0-19.1-1.1"},{"rt":null,"stimulus":"<div style=\"background-color:#6dce98\"><h1 style=\"background-color:MediumSeaGreen\" >You won a prize! Well done!</h1><div style=\"background-color:#6dce98\"><h1 style=\"background-color:MediumSeaGreen\" >Only 19 left to go!</h1><img id=\"box\" src=\"img/prizes/flowers.png\"></img><img id=\"box\" src=\"img/empty/purpleopenbox.png\"></img></div>","key_press":null,"trial_type":"html-keyboard-response","trial_index":28,"time_elapsed":306853,"internal_node_id":"0.0-19.1-1.1"},{"rt":847.9999999999418,"stimulus":"<p>Choose a box,</p>","button_pressed":1,"trial_type":"html-button-response","trial_index":29,"time_elapsed":307708,"internal_node_id":"0.0-19.2-0.2"},{"rate":0.7748060039317827,"trial_type":"html-keyboard-response","trial_index":30,"time_elapsed":307708,"internal_node_id":"0.0-19.2-1.2"},{"rt":null,"stimulus":"<div style=\"background-color:#6dce98\"><h1 style=\"background-color:MediumSeaGreen\" >You won a prize! Well done!</h1><div style=\"background-color:#6dce98\"><h1 style=\"background-color:MediumSeaGreen\" >Only 18 left to go!</h1><img id=\"box\" src=\"img/prizes/yoyo.png\"></img><img id=\"box\" src=\"img/empty/greenopenbox.png\"></img></div>","key_press":null,"trial_type":"html-keyboard-response","trial_index":30,"time_elapsed":309211,"internal_node_id":"0.0-19.2-1.2"},{"rt":938.5000000001746,"stimulus":"<p>Choose a box,</p>","button_pressed":2,"trial_type":"html-button-response","trial_index":31,"time_elapsed":310153,"internal_node_id":"0.0-19.3-0.3"},{"rate":0.5142475124233861,"trial_type":"html-keyboard-response","trial_index":32,"time_elapsed":310153,"internal_node_id":"0.0-19.3-1.3"},{"rt":null,"stimulus":"<div style=\"background-color:#6dce98\"><h1 style=\"background-color:MediumSeaGreen\" >You won a prize! Well done!</h1><div style=\"background-color:#6dce98\"><h1 style=\"background-color:MediumSeaGreen\" >Only 17 left to go!</h1><img id=\"box\" src=\"img/prizes/bear.png\"></img><img id=\"box\" src=\"img/empty/purpleopenbox.png\"></img></div>","key_press":null,"trial_type":"html-keyboard-response","trial_index":32,"time_elapsed":311656,"internal_node_id":"0.0-19.3-1.3"},{"rt":652.1000000011409,"stimulus":"<p>Choose a box,</p>","button_pressed":1,"trial_type":"html-button-response","trial_index":33,"time_elapsed":312311,"internal_node_id":"0.0-19.4-0.4"},{"rate":0.7748060039317827,"trial_type":"html-keyboard-response","trial_index":34,"time_elapsed":312312,"internal_node_id":"0.0-19.4-1.4"},{"rt":null,"stimulus":"<div style=\"background-color:#ff7157\"><h1 style=\"background-color:Tomato\">Bad luck! There was no prize in the box!</h1><h1 style=\"background-color:Tomato\">Remember, you need to keep going until you have 20 prizes!</h1><img id=\"box\" src=\"img/sad/greenopenboxsadthumb.png\"></img></div>","key_press":null,"trial_type":"html-keyboard-response","trial_index":34,"time_elapsed":313814,"internal_node_id":"0.0-19.4-1.4"},{"rt":990.4999999998836,"stimulus":"<p>Choose a box,</p>","button_pressed":2,"trial_type":"html-button-response","trial_index":35,"time_elapsed":314808,"internal_node_id":"0.0-19.5-0.5"},{"rate":0.5142475124233861,"trial_type":"html-keyboard-response","trial_index":36,"time_elapsed":314809,"internal_node_id":"0.0-19.5-1.5"},{"rt":null,"stimulus":"<div style=\"background-color:#ff7157\"><h1 style=\"background-color:Tomato\">Bad luck! There was no prize in the box!</h1><h1 style=\"background-color:Tomato\">Remember, you need to keep going until you have 20 prizes!</h1><img id=\"box\" src=\"img/sad/purpleopenboxsadthumb.png\"></img></div>","key_press":null,"trial_type":"html-keyboard-response","trial_index":36,"time_elapsed":316311,"internal_node_id":"0.0-19.5-1.5"},{"rt":692.5000000010477,"stimulus":"<p>Choose a box,</p>","button_pressed":3,"trial_type":"html-button-response","trial_index":37,"time_elapsed":317007,"internal_node_id":"0.0-19.6-0.6"},{"rate":0.32737750942029165,"trial_type":"html-keyboard-response","trial_index":38,"time_elapsed":317008,"internal_node_id":"0.0-19.6-1.6"},{"rt":null,"stimulus":"<div style=\"background-color:#6dce98\"><h1 style=\"background-color:MediumSeaGreen\" >You won a prize! Well done!</h1><div style=\"background-color:#6dce98\"><h1 style=\"background-color:MediumSeaGreen\" >Only 16 left to go!</h1><img id=\"box\" src=\"img/prizes/duck.png\"></img><img id=\"box\" src=\"img/empty/redopenbox.png\"></img></div>","key_press":null,"trial_type":"html-keyboard-response","trial_index":38,"time_elapsed":318511,"internal_node_id":"0.0-19.6-1.6"},{"rt":593.6000000001513,"stimulus":"<p>Choose a box,</p>","button_pressed":0,"trial_type":"html-button-response","trial_index":39,"time_elapsed":319108,"internal_node_id":"0.0-19.7-0.7"},{"rate":0.6728921180532863,"trial_type":"html-keyboard-response","trial_index":40,"time_elapsed":319108,"internal_node_id":"0.0-19.7-1.7"},{"rt":null,"stimulus":"<div style=\"background-color:#6dce98\"><h1 style=\"background-color:MediumSeaGreen\" >You won a prize! Well done!</h1><div style=\"background-color:#6dce98\"><h1 style=\"background-color:MediumSeaGreen\" >Only 15 left to go!</h1><img id=\"box\" src=\"img/prizes/beachball.png\"></img><img id=\"box\" src=\"img/empty/blueopenbox.png\"></img></div>","key_press":null,"trial_type":"html-keyboard-response","trial_index":40,"time_elapsed":320611,"internal_node_id":"0.0-19.7-1.7"},{"rt":830.1000000010827,"stimulus":"<p>Choose a box,</p>","button_pressed":1,"trial_type":"html-button-response","trial_index":41,"time_elapsed":321445,"internal_node_id":"0.0-19.8-0.8"},{"rate":0.7748060039317827,"trial_type":"html-keyboard-response","trial_index":42,"time_elapsed":321445,"internal_node_id":"0.0-19.8-1.8"},{"rt":null,"stimulus":"<div style=\"background-color:#6dce98\"><h1 style=\"background-color:MediumSeaGreen\" >You won a prize! Well done!</h1><div style=\"background-color:#6dce98\"><h1 style=\"background-color:MediumSeaGreen\" >Only 14 left to go!</h1><img id=\"box\" src=\"img/prizes/yoyo.png\"></img><img id=\"box\" src=\"img/empty/greenopenbox.png\"></img></div>","key_press":null,"trial_type":"html-keyboard-response","trial_index":42,"time_elapsed":322948,"internal_node_id":"0.0-19.8-1.8"},{"rt":610.5000000006985,"stimulus":"<p>Choose a box,</p>","button_pressed":3,"trial_type":"html-button-response","trial_index":43,"time_elapsed":323562,"internal_node_id":"0.0-19.9-0.9"},{"rate":0.32737750942029165,"trial_type":"html-keyboard-response","trial_index":44,"time_elapsed":323562,"internal_node_id":"0.0-19.9-1.9"},{"rt":null,"stimulus":"<div style=\"background-color:#ff7157\"><h1 style=\"background-color:Tomato\">Bad luck! There was no prize in the box!</h1><h1 style=\"background-color:Tomato\">Remember, you need to keep going until you have 20 prizes!</h1><img id=\"box\" src=\"img/sad/redopenboxsadthumb.png\"></img></div>","key_press":null,"trial_type":"html-keyboard-response","trial_index":44,"time_elapsed":325065,"internal_node_id":"0.0-19.9-1.9"},{"rt":635.3999999992084,"stimulus":"<p>Choose a box,</p>","button_pressed":2,"trial_type":"html-button-response","trial_index":45,"time_elapsed":325706,"internal_node_id":"0.0-19.10-0.10"},{"rate":0.5142475124233861,"trial_type":"html-keyboard-response","trial_index":46,"time_elapsed":325706,"internal_node_id":"0.0-19.10-1.10"},{"rt":null,"stimulus":"<div style=\"background-color:#6dce98\"><h1 style=\"background-color:MediumSeaGreen\" >You won a prize! Well done!</h1><div style=\"background-color:#6dce98\"><h1 style=\"background-color:MediumSeaGreen\" >Only 13 left to go!</h1><img id=\"box\" src=\"img/prizes/yoyo.png\"></img><img id=\"box\" src=\"img/empty/purpleopenbox.png\"></img></div>","key_press":null,"trial_type":"html-keyboard-response","trial_index":46,"time_elapsed":327209,"internal_node_id":"0.0-19.10-1.10"},{"rt":753.1999999991385,"stimulus":"<p>Choose a box,</p>","button_pressed":0,"trial_type":"html-button-response","trial_index":47,"time_elapsed":327970,"internal_node_id":"0.0-19.11-0.11"},{"rate":0.6728921180532863,"trial_type":"html-keyboard-response","trial_index":48,"time_elapsed":327970,"internal_node_id":"0.0-19.11-1.11"},{"rt":null,"stimulus":"<div style=\"background-color:#6dce98\"><h1 style=\"background-color:MediumSeaGreen\" >You won a prize! Well done!</h1><div style=\"background-color:#6dce98\"><h1 style=\"background-color:MediumSeaGreen\" >Only 12 left to go!</h1><img id=\"box\" src=\"img/prizes/duck.png\"></img><img id=\"box\" src=\"img/empty/blueopenbox.png\"></img></div>","key_press":null,"trial_type":"html-keyboard-response","trial_index":48,"time_elapsed":329473,"internal_node_id":"0.0-19.11-1.11"},{"rt":626.6999999988475,"stimulus":"<p>Choose a box,</p>","button_pressed":1,"trial_type":"html-button-response","trial_index":49,"time_elapsed":330103,"internal_node_id":"0.0-19.12-0.12"},{"rate":0.7748060039317827,"trial_type":"html-keyboard-response","trial_index":50,"time_elapsed":330103,"internal_node_id":"0.0-19.12-1.12"},{"rt":null,"stimulus":"<div style=\"background-color:#ff7157\"><h1 style=\"background-color:Tomato\">Bad luck! There was no prize in the box!</h1><h1 style=\"background-color:Tomato\">Remember, you need to keep going until you have 20 prizes!</h1><img id=\"box\" src=\"img/sad/greenopenboxsadthumb.png\"></img></div>","key_press":null,"trial_type":"html-keyboard-response","trial_index":50,"time_elapsed":331606,"internal_node_id":"0.0-19.12-1.12"},{"rt":1344.199999999546,"stimulus":"<p>Choose a box,</p>","button_pressed":2,"trial_type":"html-button-response","trial_index":51,"time_elapsed":332954,"internal_node_id":"0.0-19.13-0.13"},{"rate":0.5142475124233861,"trial_type":"html-keyboard-response","trial_index":52,"time_elapsed":332955,"internal_node_id":"0.0-19.13-1.13"},{"rt":null,"stimulus":"<div style=\"background-color:#6dce98\"><h1 style=\"background-color:MediumSeaGreen\" >You won a prize! Well done!</h1><div style=\"background-color:#6dce98\"><h1 style=\"background-color:MediumSeaGreen\" >Only 11 left to go!</h1><img id=\"box\" src=\"img/prizes/flowers.png\"></img><img id=\"box\" src=\"img/empty/purpleopenbox.png\"></img></div>","key_press":null,"trial_type":"html-keyboard-response","trial_index":52,"time_elapsed":334458,"internal_node_id":"0.0-19.13-1.13"},{"rt":625.7000000004773,"stimulus":"<p>Choose a box,</p>","button_pressed":3,"trial_type":"html-button-response","trial_index":53,"time_elapsed":335088,"internal_node_id":"0.0-19.14-0.14"},{"rate":0.32737750942029165,"trial_type":"html-keyboard-response","trial_index":54,"time_elapsed":335088,"internal_node_id":"0.0-19.14-1.14"},{"rt":null,"stimulus":"<div style=\"background-color:#ff7157\"><h1 style=\"background-color:Tomato\">Bad luck! There was no prize in the box!</h1><h1 style=\"background-color:Tomato\">Remember, you need to keep going until you have 20 prizes!</h1><img id=\"box\" src=\"img/sad/redopenboxsadthumb.png\"></img></div>","key_press":null,"trial_type":"html-keyboard-response","trial_index":54,"time_elapsed":336591,"internal_node_id":"0.0-19.14-1.14"},{"rt":979.1999999997788,"stimulus":"<p>Choose a box,</p>","button_pressed":3,"trial_type":"html-button-response","trial_index":55,"time_elapsed":337574,"internal_node_id":"0.0-19.15-0.15"},{"rate":0.32737750942029165,"trial_type":"html-keyboard-response","trial_index":56,"time_elapsed":337574,"internal_node_id":"0.0-19.15-1.15"},{"rt":null,"stimulus":"<div style=\"background-color:#ff7157\"><h1 style=\"background-color:Tomato\">Bad luck! There was no prize in the box!</h1><h1 style=\"background-color:Tomato\">Remember, you need to keep going until you have 20 prizes!</h1><img id=\"box\" src=\"img/sad/redopenboxsadthumb.png\"></img></div>","key_press":null,"trial_type":"html-keyboard-response","trial_index":56,"time_elapsed":339077,"internal_node_id":"0.0-19.15-1.15"},{"rt":684.699999999837,"stimulus":"<p>Choose a box,</p>","button_pressed":1,"trial_type":"html-button-response","trial_index":57,"time_elapsed":339765,"internal_node_id":"0.0-19.16-0.16"},{"rate":0.7748060039317827,"trial_type":"html-keyboard-response","trial_index":58,"time_elapsed":339765,"internal_node_id":"0.0-19.16-1.16"},{"rt":null,"stimulus":"<div style=\"background-color:#6dce98\"><h1 style=\"background-color:MediumSeaGreen\" >You won a prize! Well done!</h1><div style=\"background-color:#6dce98\"><h1 style=\"background-color:MediumSeaGreen\" >Only 10 left to go!</h1><img id=\"box\" src=\"img/prizes/choc.png\"></img><img id=\"box\" src=\"img/empty/greenopenbox.png\"></img></div>","key_press":null,"trial_type":"html-keyboard-response","trial_index":58,"time_elapsed":341268,"internal_node_id":"0.0-19.16-1.16"},{"rt":750.0999999992782,"stimulus":"<p>Choose a box,</p>","button_pressed":0,"trial_type":"html-button-response","trial_index":59,"time_elapsed":342022,"internal_node_id":"0.0-19.17-0.17"},{"rate":0.6728921180532863,"trial_type":"html-keyboard-response","trial_index":60,"time_elapsed":342022,"internal_node_id":"0.0-19.17-1.17"},{"rt":null,"stimulus":"<div style=\"background-color:#6dce98\"><h1 style=\"background-color:MediumSeaGreen\" >You won a prize! Well done!</h1><div style=\"background-color:#6dce98\"><h1 style=\"background-color:MediumSeaGreen\" >Only 9 left to go!</h1><img id=\"box\" src=\"img/prizes/ring.png\"></img><img id=\"box\" src=\"img/empty/blueopenbox.png\"></img></div>","key_press":null,"trial_type":"html-keyboard-response","trial_index":60,"time_elapsed":343524,"internal_node_id":"0.0-19.17-1.17"},{"rt":932.2000000011176,"stimulus":"<p>Choose a box,</p>","button_pressed":2,"trial_type":"html-button-response","trial_index":61,"time_elapsed":344460,"internal_node_id":"0.0-19.18-0.18"},{"rate":0.5142475124233861,"trial_type":"html-keyboard-response","trial_index":62,"time_elapsed":344461,"internal_node_id":"0.0-19.18-1.18"},{"rt":null,"stimulus":"<div style=\"background-color:#6dce98\"><h1 style=\"background-color:MediumSeaGreen\" >You won a prize! Well done!</h1><div style=\"background-color:#6dce98\"><h1 style=\"background-color:MediumSeaGreen\" >Only 8 left to go!</h1><img id=\"box\" src=\"img/prizes/beachball.png\"></img><img id=\"box\" src=\"img/empty/purpleopenbox.png\"></img></div>","key_press":null,"trial_type":"html-keyboard-response","trial_index":62,"time_elapsed":345963,"internal_node_id":"0.0-19.18-1.18"},{"rt":637.3000000003376,"stimulus":"<p>Choose a box,</p>","button_pressed":0,"trial_type":"html-button-response","trial_index":63,"time_elapsed":346604,"internal_node_id":"0.0-19.19-0.19"},{"rate":0.6728921180532863,"trial_type":"html-keyboard-response","trial_index":64,"time_elapsed":346604,"internal_node_id":"0.0-19.19-1.19"},{"rt":null,"stimulus":"<div style=\"background-color:#6dce98\"><h1 style=\"background-color:MediumSeaGreen\" >You won a prize! Well done!</h1><div style=\"background-color:#6dce98\"><h1 style=\"background-color:MediumSeaGreen\" >Only 7 left to go!</h1><img id=\"box\" src=\"img/prizes/coins.png\"></img><img id=\"box\" src=\"img/empty/blueopenbox.png\"></img></div>","key_press":null,"trial_type":"html-keyboard-response","trial_index":64,"time_elapsed":348107,"internal_node_id":"0.0-19.19-1.19"},{"rt":1082.3999999993248,"stimulus":"<p>Choose a box,</p>","button_pressed":2,"trial_type":"html-button-response","trial_index":65,"time_elapsed":349193,"internal_node_id":"0.0-19.20-0.20"},{"rate":0.5142475124233861,"trial_type":"html-keyboard-response","trial_index":66,"time_elapsed":349193,"internal_node_id":"0.0-19.20-1.20"},{"rt":null,"stimulus":"<div style=\"background-color:#ff7157\"><h1 style=\"background-color:Tomato\">Bad luck! There was no prize in the box!</h1><h1 style=\"background-color:Tomato\">Remember, you need to keep going until you have 20 prizes!</h1><img id=\"box\" src=\"img/sad/purpleopenboxsadthumb.png\"></img></div>","key_press":null,"trial_type":"html-keyboard-response","trial_index":66,"time_elapsed":350697,"internal_node_id":"0.0-19.20-1.20"},{"rt":756.3999999983935,"stimulus":"<p>Choose a box,</p>","button_pressed":0,"trial_type":"html-button-response","trial_index":67,"time_elapsed":351457,"internal_node_id":"0.0-19.21-0.21"},{"rate":0.6728921180532863,"trial_type":"html-keyboard-response","trial_index":68,"time_elapsed":351457,"internal_node_id":"0.0-19.21-1.21"},{"rt":null,"stimulus":"<div style=\"background-color:#6dce98\"><h1 style=\"background-color:MediumSeaGreen\" >You won a prize! Well done!</h1><div style=\"background-color:#6dce98\"><h1 style=\"background-color:MediumSeaGreen\" >Only 6 left to go!</h1><img id=\"box\" src=\"img/prizes/duck.png\"></img><img id=\"box\" src=\"img/empty/blueopenbox.png\"></img></div>","key_press":null,"trial_type":"html-keyboard-response","trial_index":68,"time_elapsed":352960,"internal_node_id":"0.0-19.21-1.21"},{"rt":1019.1999999987893,"stimulus":"<p>Choose a box,</p>","button_pressed":1,"trial_type":"html-button-response","trial_index":69,"time_elapsed":353983,"internal_node_id":"0.0-19.22-0.22"},{"rate":0.7748060039317827,"trial_type":"html-keyboard-response","trial_index":70,"time_elapsed":353983,"internal_node_id":"0.0-19.22-1.22"},{"rt":null,"stimulus":"<div style=\"background-color:#6dce98\"><h1 style=\"background-color:MediumSeaGreen\" >You won a prize! Well done!</h1><div style=\"background-color:#6dce98\"><h1 style=\"background-color:MediumSeaGreen\" >Only 5 left to go!</h1><img id=\"box\" src=\"img/prizes/beachball.png\"></img><img id=\"box\" src=\"img/empty/greenopenbox.png\"></img></div>","key_press":null,"trial_type":"html-keyboard-response","trial_index":70,"time_elapsed":355486,"internal_node_id":"0.0-19.22-1.22"},{"rt":1165.899999999965,"stimulus":"<p>Choose a box,</p>","button_pressed":3,"trial_type":"html-button-response","trial_index":71,"time_elapsed":356655,"internal_node_id":"0.0-19.23-0.23"},{"rate":0.32737750942029165,"trial_type":"html-keyboard-response","trial_index":72,"time_elapsed":356656,"internal_node_id":"0.0-19.23-1.23"},{"rt":null,"stimulus":"<div style=\"background-color:#ff7157\"><h1 style=\"background-color:Tomato\">Bad luck! There was no prize in the box!</h1><h1 style=\"background-color:Tomato\">Remember, you need to keep going until you have 20 prizes!</h1><img id=\"box\" src=\"img/sad/redopenboxsadthumb.png\"></img></div>","key_press":null,"trial_type":"html-keyboard-response","trial_index":72,"time_elapsed":358158,"internal_node_id":"0.0-19.23-1.23"},{"rt":650.5999999990454,"stimulus":"<p>Choose a box,</p>","button_pressed":1,"trial_type":"html-button-response","trial_index":73,"time_elapsed":358812,"internal_node_id":"0.0-19.24-0.24"},{"rate":0.7748060039317827,"trial_type":"html-keyboard-response","trial_index":74,"time_elapsed":358813,"internal_node_id":"0.0-19.24-1.24"},{"rt":null,"stimulus":"<div style=\"background-color:#6dce98\"><h1 style=\"background-color:MediumSeaGreen\" >You won a prize! Well done!</h1><div style=\"background-color:#6dce98\"><h1 style=\"background-color:MediumSeaGreen\" >Only 4 left to go!</h1><img id=\"box\" src=\"img/prizes/duck.png\"></img><img id=\"box\" src=\"img/empty/greenopenbox.png\"></img></div>","key_press":null,"trial_type":"html-keyboard-response","trial_index":74,"time_elapsed":360316,"internal_node_id":"0.0-19.24-1.24"},{"rt":2133.6999999984982,"stimulus":"<p>Choose a box,</p>","button_pressed":2,"trial_type":"html-button-response","trial_index":75,"time_elapsed":362453,"internal_node_id":"0.0-19.25-0.25"},{"rate":0.5142475124233861,"trial_type":"html-keyboard-response","trial_index":76,"time_elapsed":362454,"internal_node_id":"0.0-19.25-1.25"},{"rt":null,"stimulus":"<div style=\"background-color:#6dce98\"><h1 style=\"background-color:MediumSeaGreen\" >You won a prize! Well done!</h1><div style=\"background-color:#6dce98\"><h1 style=\"background-color:MediumSeaGreen\" >Only 3 left to go!</h1><img id=\"box\" src=\"img/prizes/coins.png\"></img><img id=\"box\" src=\"img/empty/purpleopenbox.png\"></img></div>","key_press":null,"trial_type":"html-keyboard-response","trial_index":76,"time_elapsed":363956,"internal_node_id":"0.0-19.25-1.25"},{"rt":120.39999999979045,"stimulus":"<p>Choose a box,</p>","button_pressed":0,"trial_type":"html-button-response","trial_index":77,"time_elapsed":364079,"internal_node_id":"0.0-19.26-0.26"},{"rate":0.6728921180532863,"trial_type":"html-keyboard-response","trial_index":78,"time_elapsed":364079,"internal_node_id":"0.0-19.26-1.26"},{"rt":null,"stimulus":"<div style=\"background-color:#ff7157\"><h1 style=\"background-color:Tomato\">Bad luck! There was no prize in the box!</h1><h1 style=\"background-color:Tomato\">Remember, you need to keep going until you have 20 prizes!</h1><img id=\"box\" src=\"img/sad/blueopenboxsadthumb.png\"></img></div>","key_press":null,"trial_type":"html-keyboard-response","trial_index":78,"time_elapsed":365581,"internal_node_id":"0.0-19.26-1.26"},{"rt":532.9000000001397,"stimulus":"<p>Choose a box,</p>","button_pressed":1,"trial_type":"html-button-response","trial_index":79,"time_elapsed":366117,"internal_node_id":"0.0-19.27-0.27"},{"rate":0.7748060039317827,"trial_type":"html-keyboard-response","trial_index":80,"time_elapsed":366117,"internal_node_id":"0.0-19.27-1.27"},{"rt":null,"stimulus":"<div style=\"background-color:#6dce98\"><h1 style=\"background-color:MediumSeaGreen\" >You won a prize! Well done!</h1><div style=\"background-color:#6dce98\"><h1 style=\"background-color:MediumSeaGreen\" >Only 2 left to go!</h1><img id=\"box\" src=\"img/prizes/choc.png\"></img><img id=\"box\" src=\"img/empty/greenopenbox.png\"></img></div>","key_press":null,"trial_type":"html-keyboard-response","trial_index":80,"time_elapsed":367619,"internal_node_id":"0.0-19.27-1.27"},{"rt":1375.699999998731,"stimulus":"<p>Choose a box,</p>","button_pressed":3,"trial_type":"html-button-response","trial_index":81,"time_elapsed":368998,"internal_node_id":"0.0-19.28-0.28"},{"rate":0.32737750942029165,"trial_type":"html-keyboard-response","trial_index":82,"time_elapsed":368999,"internal_node_id":"0.0-19.28-1.28"},{"rt":null,"stimulus":"<div style=\"background-color:#ff7157\"><h1 style=\"background-color:Tomato\">Bad luck! There was no prize in the box!</h1><h1 style=\"background-color:Tomato\">Remember, you need to keep going until you have 20 prizes!</h1><img id=\"box\" src=\"img/sad/redopenboxsadthumb.png\"></img></div>","key_press":null,"trial_type":"html-keyboard-response","trial_index":82,"time_elapsed":370501,"internal_node_id":"0.0-19.28-1.28"},{"rt":1086.9999999995343,"stimulus":"<p>Choose a box,</p>","button_pressed":2,"trial_type":"html-button-response","trial_index":83,"time_elapsed":371592,"internal_node_id":"0.0-19.29-0.29"},{"rate":0.5142475124233861,"trial_type":"html-keyboard-response","trial_index":84,"time_elapsed":371592,"internal_node_id":"0.0-19.29-1.29"},{"rt":null,"stimulus":"<div style=\"background-color:#ff7157\"><h1 style=\"background-color:Tomato\">Bad luck! There was no prize in the box!</h1><h1 style=\"background-color:Tomato\">Remember, you need to keep going until you have 20 prizes!</h1><img id=\"box\" src=\"img/sad/purpleopenboxsadthumb.png\"></img></div>","key_press":null,"trial_type":"html-keyboard-response","trial_index":84,"time_elapsed":373095,"internal_node_id":"0.0-19.29-1.29"},{"rt":706.2999999998719,"stimulus":"<p>Choose a box,</p>","button_pressed":0,"trial_type":"html-button-response","trial_index":85,"time_elapsed":373804,"internal_node_id":"0.0-19.30-0.30"},{"rate":0.6728921180532863,"trial_type":"html-keyboard-response","trial_index":86,"time_elapsed":373805,"internal_node_id":"0.0-19.30-1.30"},{"rt":null,"stimulus":"<div style=\"background-color:#ff7157\"><h1 style=\"background-color:Tomato\">Bad luck! There was no prize in the box!</h1><h1 style=\"background-color:Tomato\">Remember, you need to keep going until you have 20 prizes!</h1><img id=\"box\" src=\"img/sad/blueopenboxsadthumb.png\"></img></div>","key_press":null,"trial_type":"html-keyboard-response","trial_index":86,"time_elapsed":375306,"internal_node_id":"0.0-19.30-1.30"},{"rt":461.699999999837,"stimulus":"<p>Choose a box,</p>","button_pressed":1,"trial_type":"html-button-response","trial_index":87,"time_elapsed":375770,"internal_node_id":"0.0-19.31-0.31"},{"rate":0.7748060039317827,"trial_type":"html-keyboard-response","trial_index":88,"time_elapsed":375771,"internal_node_id":"0.0-19.31-1.31"},{"rt":null,"stimulus":"<div style=\"background-color:#6dce98\"><h1 style=\"background-color:MediumSeaGreen\" >You won a prize! Well done!</h1><div style=\"background-color:#6dce98\"><h1 style=\"background-color:MediumSeaGreen\" >Only 1 left to go!</h1><img id=\"box\" src=\"img/prizes/bear.png\"></img><img id=\"box\" src=\"img/empty/greenopenbox.png\"></img></div>","key_press":null,"trial_type":"html-keyboard-response","trial_index":88,"time_elapsed":377273,"internal_node_id":"0.0-19.31-1.31"},{"rt":640.2999999991152,"stimulus":"<p>Choose a box,</p>","button_pressed":1,"trial_type":"html-button-response","trial_index":89,"time_elapsed":377919,"internal_node_id":"0.0-19.32-0.32"},{"rate":0.7748060039317827,"trial_type":"html-keyboard-response","trial_index":90,"time_elapsed":377919,"internal_node_id":"0.0-19.32-1.32"},{"rt":null,"stimulus":"<div style=\"background-color:#6dce98\"><h1 style=\"background-color:MediumSeaGreen\" >You won a prize! Well done!</h1><div style=\"background-color:#6dce98\"><h1 style=\"background-color:MediumSeaGreen\" >Only 0 left to go!</h1><img id=\"box\" src=\"img/prizes/ring.png\"></img><img id=\"box\" src=\"img/empty/greenopenbox.png\"></img></div>","key_press":null,"trial_type":"html-keyboard-response","trial_index":90,"time_elapsed":379422,"internal_node_id":"0.0-19.32-1.32"},{"rt":47086.40000000014,"responses":"{\"Q0\":\"Interesting\",\"Q1\":\"Tried to chose Different every time\"}","trial_type":"survey-text","trial_index":91,"time_elapsed":426517,"internal_node_id":"0.0-20.0"}]