[{"view_history":"[{\"page_index\":0,\"viewing_time\":5163},{\"page_index\":1,\"viewing_time\":2026},{\"page_index\":2,\"viewing_time\":2238.000000000002},{\"page_index\":3,\"viewing_time\":1261.9999999999982},{\"page_index\":4,\"viewing_time\":3923},{\"page_index\":5,\"viewing_time\":2528}]","rt":17141,"trial_type":"instructions","trial_index":0,"time_elapsed":17143,"internal_node_id":"0.0-0.0"},{"rt":7208,"responses":"{\"Q0\":\"Yes\",\"Q1\":\"Yes\",\"Q2\":\"Yes\"}","question_order":"[0,1,2]","trial_type":"survey-multi-choice","trial_index":1,"time_elapsed":24356,"internal_node_id":"0.0-1.0-0.0"},{"rt":24218,"responses":"{\"Q0\":\"Yes\",\"Q1\":\"Yes\",\"Q2\":\"Yes\"}","question_order":"[0,1,2]","trial_type":"survey-multi-choice","trial_index":2,"time_elapsed":48576,"internal_node_id":"0.0-2.0-0.0"},{"rt":3110,"responses":"{\"Q0\":\"602c01781da22a000b59de2a\"}","trial_type":"survey-text","trial_index":3,"time_elapsed":51702,"internal_node_id":"0.0-3.0"},{"rt":3350,"responses":"{\"Q0\":\"Male\",\"Q1\":\"18-25\"}","question_order":"[0,1]","trial_type":"survey-multi-choice","trial_index":4,"time_elapsed":55053,"internal_node_id":"0.0-4.0"},{"rt":8704,"responses":"{\"Q0\":\"\"}","trial_type":"survey-text","trial_index":5,"time_elapsed":63772,"internal_node_id":"0.0-5.0"},{"view_history":"[{\"page_index\":0,\"viewing_time\":1714}]","rt":1714,"trial_type":"instructions","trial_index":6,"time_elapsed":65486,"internal_node_id":"0.0-6.0"},{"rt":11245,"responses":"{\"Interested\":1,\"Distressed\":3,\"Excited\":1,\"Upset\":3}","question_order":"[0,1,2,3]","trial_type":"survey-likert","trial_index":7,"time_elapsed":76734,"internal_node_id":"0.0-7.0"},{"rt":13266,"responses":"{\"Strong\":1,\"Guilty\":1,\"Scared\":2,\"Hostile\":2}","question_order":"[0,1,2,3]","trial_type":"survey-likert","trial_index":8,"time_elapsed":90003,"internal_node_id":"0.0-8.0"},{"rt":10754,"responses":"{\"Enthusiastic\":0,\"Proud\":0,\"Irritable\":3,\"Alert\":1}","question_order":"[0,1,2,3]","trial_type":"survey-likert","trial_index":9,"time_elapsed":100762,"internal_node_id":"0.0-9.0"},{"rt":8104,"responses":"{\"Ashamed\":1,\"Inspired\":0,\"Nervous\":3,\"Determined\":1}","question_order":"[0,1,2,3]","trial_type":"survey-likert","trial_index":10,"time_elapsed":108870,"internal_node_id":"0.0-10.0"},{"rt":7730,"responses":"{\"Attentive\":0,\"Jittery\":1,\"Active\":1,\"Afraid\":2}","question_order":"[0,1,2,3]","trial_type":"survey-likert","trial_index":11,"time_elapsed":116604,"internal_node_id":"0.0-11.0"},{"rt":14012,"responses":"{\"Q0\":1,\"Q1\":2,\"Q2\":3,\"Q3\":3}","question_order":"[0,1,2,3]","trial_type":"survey-likert","trial_index":12,"time_elapsed":130620,"internal_node_id":"0.0-12.0"},{"rt":16592,"responses":"{\"Q0\":3,\"Q1\":3,\"Q2\":3,\"Q3\":0}","question_order":"[0,1,2,3]","trial_type":"survey-likert","trial_index":13,"time_elapsed":147215,"internal_node_id":"0.0-13.0"},{"rt":8337,"responses":"{\"Q0\":3,\"Q1\":3,\"Q2\":3,\"Q3\":3}","question_order":"[0,1,2,3]","trial_type":"survey-likert","trial_index":14,"time_elapsed":155557,"internal_node_id":"0.0-14.0"},{"rt":9055,"responses":"{\"Q0\":0,\"Q1\":1,\"Q2\":2}","question_order":"[0,1,2]","trial_type":"survey-likert","trial_index":15,"time_elapsed":164617,"internal_node_id":"0.0-15.0"},{"view_history":"[{\"page_index\":0,\"viewing_time\":1841},{\"page_index\":1,\"viewing_time\":6880},{\"page_index\":2,\"viewing_time\":3463}]","rt":12184,"trial_type":"instructions","trial_index":16,"time_elapsed":176808,"internal_node_id":"0.0-16.0"},{"rt":4080,"stimulus":"<p>Choose a box,</p>","button_pressed":2,"trial_type":"html-button-response","trial_index":17,"time_elapsed":180898,"internal_node_id":"0.0-17.0-0.0"},{"rate":0.3960548364569576,"trial_type":"html-keyboard-response","trial_index":18,"time_elapsed":180899,"internal_node_id":"0.0-17.0-1.0"},{"rt":null,"stimulus":"<div style=\"background-color:#ff7157\"><h1 style=\"background-color:Tomato\">Bad luck! There was no prize in the box!</h1><h1 style=\"background-color:Tomato\">Remember, you need to keep going until you have 20 prizes!</h1><img id=\"box\" src=\"img/sad/purpleopenboxsadthumb.png\"></img></div>","key_press":null,"trial_type":"html-keyboard-response","trial_index":18,"time_elapsed":182404,"internal_node_id":"0.0-17.0-1.0"},{"rt":2427,"stimulus":"<p>Choose a box,</p>","button_pressed":1,"trial_type":"html-button-response","trial_index":19,"time_elapsed":184841,"internal_node_id":"0.0-17.0-0.1"},{"rate":0.7595105717328606,"trial_type":"html-keyboard-response","trial_index":20,"time_elapsed":184842,"internal_node_id":"0.0-17.0-1.1"},{"rt":null,"stimulus":"<div style=\"background-color:#ff7157\"><h1 style=\"background-color:Tomato\">Bad luck! There was no prize in the box!</h1><h1 style=\"background-color:Tomato\">Remember, you need to keep going until you have 20 prizes!</h1><img id=\"box\" src=\"img/sad/greenopenboxsadthumb.png\"></img></div>","key_press":null,"trial_type":"html-keyboard-response","trial_index":20,"time_elapsed":186346,"internal_node_id":"0.0-17.0-1.1"},{"rt":827,"stimulus":"<p>Choose a box,</p>","button_pressed":0,"trial_type":"html-button-response","trial_index":21,"time_elapsed":187184,"internal_node_id":"0.0-17.0-0.2"},{"rate":0.5531012376554063,"trial_type":"html-keyboard-response","trial_index":22,"time_elapsed":187184,"internal_node_id":"0.0-17.0-1.2"},{"rt":null,"stimulus":"<div style=\"background-color:#6dce98\"><h1 style=\"background-color:MediumSeaGreen\" >You won a prize! Well done!</h1><div style=\"background-color:#6dce98\"><h1 style=\"background-color:MediumSeaGreen\" >Only 19 left to go!</h1><img id=\"box\" src=\"img/prizes/choc.png\"></img><img id=\"box\" src=\"img/empty/blueopenbox.png\"></img></div>","key_press":null,"trial_type":"html-keyboard-response","trial_index":22,"time_elapsed":188692,"internal_node_id":"0.0-17.0-1.2"},{"view_history":"[{\"page_index\":0,\"viewing_time\":4000}]","rt":4001,"trial_type":"instructions","trial_index":23,"time_elapsed":192695,"internal_node_id":"0.0-18.0"},{"rt":1447,"stimulus":"<p>Choose a box,</p>","button_pressed":0,"trial_type":"html-button-response","trial_index":24,"time_elapsed":194152,"internal_node_id":"0.0-19.0-0.0"},{"rate":0.8210619530207698,"trial_type":"html-keyboard-response","trial_index":25,"time_elapsed":194153,"internal_node_id":"0.0-19.0-1.0"},{"rt":null,"stimulus":"<div style=\"background-color:#6dce98\"><h1 style=\"background-color:MediumSeaGreen\" >You won a prize! Well done!</h1><div style=\"background-color:#6dce98\"><h1 style=\"background-color:MediumSeaGreen\" >Only 19 left to go!</h1><img id=\"box\" src=\"img/prizes/flowers.png\"></img><img id=\"box\" src=\"img/empty/blueopenbox.png\"></img></div>","key_press":null,"trial_type":"html-keyboard-response","trial_index":25,"time_elapsed":195660,"internal_node_id":"0.0-19.0-1.0"},{"rt":1191,"stimulus":"<p>Choose a box,</p>","button_pressed":2,"trial_type":"html-button-response","trial_index":26,"time_elapsed":196860,"internal_node_id":"0.0-19.1-0.1"},{"rate":0.35486800171810273,"trial_type":"html-keyboard-response","trial_index":27,"time_elapsed":196860,"internal_node_id":"0.0-19.1-1.1"},{"rt":null,"stimulus":"<div style=\"background-color:#ff7157\"><h1 style=\"background-color:Tomato\">Bad luck! There was no prize in the box!</h1><h1 style=\"background-color:Tomato\">Remember, you need to keep going until you have 20 prizes!</h1><img id=\"box\" src=\"img/sad/purpleopenboxsadthumb.png\"></img></div>","key_press":null,"trial_type":"html-keyboard-response","trial_index":27,"time_elapsed":198366,"internal_node_id":"0.0-19.1-1.1"},{"rt":556,"stimulus":"<p>Choose a box,</p>","button_pressed":0,"trial_type":"html-button-response","trial_index":28,"time_elapsed":198932,"internal_node_id":"0.0-19.2-0.2"},{"rate":0.8210619530207698,"trial_type":"html-keyboard-response","trial_index":29,"time_elapsed":198932,"internal_node_id":"0.0-19.2-1.2"},{"rt":null,"stimulus":"<div style=\"background-color:#6dce98\"><h1 style=\"background-color:MediumSeaGreen\" >You won a prize! Well done!</h1><div style=\"background-color:#6dce98\"><h1 style=\"background-color:MediumSeaGreen\" >Only 18 left to go!</h1><img id=\"box\" src=\"img/prizes/beachball.png\"></img><img id=\"box\" src=\"img/empty/blueopenbox.png\"></img></div>","key_press":null,"trial_type":"html-keyboard-response","trial_index":29,"time_elapsed":200439,"internal_node_id":"0.0-19.2-1.2"},{"rt":704,"stimulus":"<p>Choose a box,</p>","button_pressed":0,"trial_type":"html-button-response","trial_index":30,"time_elapsed":201153,"internal_node_id":"0.0-19.3-0.3"},{"rate":0.8210619530207698,"trial_type":"html-keyboard-response","trial_index":31,"time_elapsed":201154,"internal_node_id":"0.0-19.3-1.3"},{"rt":null,"stimulus":"<div style=\"background-color:#6dce98\"><h1 style=\"background-color:MediumSeaGreen\" >You won a prize! Well done!</h1><div style=\"background-color:#6dce98\"><h1 style=\"background-color:MediumSeaGreen\" >Only 17 left to go!</h1><img id=\"box\" src=\"img/prizes/coins.png\"></img><img id=\"box\" src=\"img/empty/blueopenbox.png\"></img></div>","key_press":null,"trial_type":"html-keyboard-response","trial_index":31,"time_elapsed":202661,"internal_node_id":"0.0-19.3-1.3"},{"rt":401.0000000000291,"stimulus":"<p>Choose a box,</p>","button_pressed":0,"trial_type":"html-button-response","trial_index":32,"time_elapsed":203072,"internal_node_id":"0.0-19.4-0.4"},{"rate":0.8210619530207698,"trial_type":"html-keyboard-response","trial_index":33,"time_elapsed":203073,"internal_node_id":"0.0-19.4-1.4"},{"rt":null,"stimulus":"<div style=\"background-color:#ff7157\"><h1 style=\"background-color:Tomato\">Bad luck! There was no prize in the box!</h1><h1 style=\"background-color:Tomato\">Remember, you need to keep going until you have 20 prizes!</h1><img id=\"box\" src=\"img/sad/blueopenboxsadthumb.png\"></img></div>","key_press":null,"trial_type":"html-keyboard-response","trial_index":33,"time_elapsed":204579,"internal_node_id":"0.0-19.4-1.4"},{"rt":1217,"stimulus":"<p>Choose a box,</p>","button_pressed":1,"trial_type":"html-button-response","trial_index":34,"time_elapsed":205805,"internal_node_id":"0.0-19.5-0.5"},{"rate":0.6989457070428544,"trial_type":"html-keyboard-response","trial_index":35,"time_elapsed":205805,"internal_node_id":"0.0-19.5-1.5"},{"rt":null,"stimulus":"<div style=\"background-color:#ff7157\"><h1 style=\"background-color:Tomato\">Bad luck! There was no prize in the box!</h1><h1 style=\"background-color:Tomato\">Remember, you need to keep going until you have 20 prizes!</h1><img id=\"box\" src=\"img/sad/greenopenboxsadthumb.png\"></img></div>","key_press":null,"trial_type":"html-keyboard-response","trial_index":35,"time_elapsed":207311,"internal_node_id":"0.0-19.5-1.5"},{"rt":581,"stimulus":"<p>Choose a box,</p>","button_pressed":3,"trial_type":"html-button-response","trial_index":36,"time_elapsed":207901,"internal_node_id":"0.0-19.6-0.6"},{"rate":0.236627517559002,"trial_type":"html-keyboard-response","trial_index":37,"time_elapsed":207901,"internal_node_id":"0.0-19.6-1.6"},{"rt":null,"stimulus":"<div style=\"background-color:#ff7157\"><h1 style=\"background-color:Tomato\">Bad luck! There was no prize in the box!</h1><h1 style=\"background-color:Tomato\">Remember, you need to keep going until you have 20 prizes!</h1><img id=\"box\" src=\"img/sad/redopenboxsadthumb.png\"></img></div>","key_press":null,"trial_type":"html-keyboard-response","trial_index":37,"time_elapsed":209406,"internal_node_id":"0.0-19.6-1.6"},{"rt":497.0000000000291,"stimulus":"<p>Choose a box,</p>","button_pressed":2,"trial_type":"html-button-response","trial_index":38,"time_elapsed":209911,"internal_node_id":"0.0-19.7-0.7"},{"rate":0.35486800171810273,"trial_type":"html-keyboard-response","trial_index":39,"time_elapsed":209912,"internal_node_id":"0.0-19.7-1.7"},{"rt":null,"stimulus":"<div style=\"background-color:#ff7157\"><h1 style=\"background-color:Tomato\">Bad luck! There was no prize in the box!</h1><h1 style=\"background-color:Tomato\">Remember, you need to keep going until you have 20 prizes!</h1><img id=\"box\" src=\"img/sad/purpleopenboxsadthumb.png\"></img></div>","key_press":null,"trial_type":"html-keyboard-response","trial_index":39,"time_elapsed":211417,"internal_node_id":"0.0-19.7-1.7"},{"rt":462,"stimulus":"<p>Choose a box,</p>","button_pressed":0,"trial_type":"html-button-response","trial_index":40,"time_elapsed":211887,"internal_node_id":"0.0-19.8-0.8"},{"rate":0.8210619530207698,"trial_type":"html-keyboard-response","trial_index":41,"time_elapsed":211888,"internal_node_id":"0.0-19.8-1.8"},{"rt":null,"stimulus":"<div style=\"background-color:#6dce98\"><h1 style=\"background-color:MediumSeaGreen\" >You won a prize! Well done!</h1><div style=\"background-color:#6dce98\"><h1 style=\"background-color:MediumSeaGreen\" >Only 16 left to go!</h1><img id=\"box\" src=\"img/prizes/bear.png\"></img><img id=\"box\" src=\"img/empty/blueopenbox.png\"></img></div>","key_press":null,"trial_type":"html-keyboard-response","trial_index":41,"time_elapsed":213395,"internal_node_id":"0.0-19.8-1.8"},{"rt":384.9999999999709,"stimulus":"<p>Choose a box,</p>","button_pressed":0,"trial_type":"html-button-response","trial_index":42,"time_elapsed":213790,"internal_node_id":"0.0-19.9-0.9"},{"rate":0.8210619530207698,"trial_type":"html-keyboard-response","trial_index":43,"time_elapsed":213790,"internal_node_id":"0.0-19.9-1.9"},{"rt":null,"stimulus":"<div style=\"background-color:#6dce98\"><h1 style=\"background-color:MediumSeaGreen\" >You won a prize! Well done!</h1><div style=\"background-color:#6dce98\"><h1 style=\"background-color:MediumSeaGreen\" >Only 15 left to go!</h1><img id=\"box\" src=\"img/prizes/choc.png\"></img><img id=\"box\" src=\"img/empty/blueopenbox.png\"></img></div>","key_press":null,"trial_type":"html-keyboard-response","trial_index":43,"time_elapsed":215297,"internal_node_id":"0.0-19.9-1.9"},{"rt":540,"stimulus":"<p>Choose a box,</p>","button_pressed":0,"trial_type":"html-button-response","trial_index":44,"time_elapsed":215847,"internal_node_id":"0.0-19.10-0.10"},{"rate":0.8210619530207698,"trial_type":"html-keyboard-response","trial_index":45,"time_elapsed":215847,"internal_node_id":"0.0-19.10-1.10"},{"rt":null,"stimulus":"<div style=\"background-color:#6dce98\"><h1 style=\"background-color:MediumSeaGreen\" >You won a prize! Well done!</h1><div style=\"background-color:#6dce98\"><h1 style=\"background-color:MediumSeaGreen\" >Only 14 left to go!</h1><img id=\"box\" src=\"img/prizes/coins.png\"></img><img id=\"box\" src=\"img/empty/blueopenbox.png\"></img></div>","key_press":null,"trial_type":"html-keyboard-response","trial_index":45,"time_elapsed":217354,"internal_node_id":"0.0-19.10-1.10"},{"rt":427,"stimulus":"<p>Choose a box,</p>","button_pressed":0,"trial_type":"html-button-response","trial_index":46,"time_elapsed":217790,"internal_node_id":"0.0-19.11-0.11"},{"rate":0.8210619530207698,"trial_type":"html-keyboard-response","trial_index":47,"time_elapsed":217791,"internal_node_id":"0.0-19.11-1.11"},{"rt":null,"stimulus":"<div style=\"background-color:#6dce98\"><h1 style=\"background-color:MediumSeaGreen\" >You won a prize! Well done!</h1><div style=\"background-color:#6dce98\"><h1 style=\"background-color:MediumSeaGreen\" >Only 13 left to go!</h1><img id=\"box\" src=\"img/prizes/duck.png\"></img><img id=\"box\" src=\"img/empty/blueopenbox.png\"></img></div>","key_press":null,"trial_type":"html-keyboard-response","trial_index":47,"time_elapsed":219299,"internal_node_id":"0.0-19.11-1.11"},{"rt":847,"stimulus":"<p>Choose a box,</p>","button_pressed":0,"trial_type":"html-button-response","trial_index":48,"time_elapsed":220155,"internal_node_id":"0.0-19.12-0.12"},{"rate":0.8210619530207698,"trial_type":"html-keyboard-response","trial_index":49,"time_elapsed":220155,"internal_node_id":"0.0-19.12-1.12"},{"rt":null,"stimulus":"<div style=\"background-color:#6dce98\"><h1 style=\"background-color:MediumSeaGreen\" >You won a prize! Well done!</h1><div style=\"background-color:#6dce98\"><h1 style=\"background-color:MediumSeaGreen\" >Only 12 left to go!</h1><img id=\"box\" src=\"img/prizes/duck.png\"></img><img id=\"box\" src=\"img/empty/blueopenbox.png\"></img></div>","key_press":null,"trial_type":"html-keyboard-response","trial_index":49,"time_elapsed":221663,"internal_node_id":"0.0-19.12-1.12"},{"rt":345,"stimulus":"<p>Choose a box,</p>","button_pressed":0,"trial_type":"html-button-response","trial_index":50,"time_elapsed":222019,"internal_node_id":"0.0-19.13-0.13"},{"rate":0.8210619530207698,"trial_type":"html-keyboard-response","trial_index":51,"time_elapsed":222019,"internal_node_id":"0.0-19.13-1.13"},{"rt":null,"stimulus":"<div style=\"background-color:#6dce98\"><h1 style=\"background-color:MediumSeaGreen\" >You won a prize! Well done!</h1><div style=\"background-color:#6dce98\"><h1 style=\"background-color:MediumSeaGreen\" >Only 11 left to go!</h1><img id=\"box\" src=\"img/prizes/lolipop.png\"></img><img id=\"box\" src=\"img/empty/blueopenbox.png\"></img></div>","key_press":null,"trial_type":"html-keyboard-response","trial_index":51,"time_elapsed":223526,"internal_node_id":"0.0-19.13-1.13"},{"rt":466.9999999999709,"stimulus":"<p>Choose a box,</p>","button_pressed":0,"trial_type":"html-button-response","trial_index":52,"time_elapsed":224003,"internal_node_id":"0.0-19.14-0.14"},{"rate":0.8210619530207698,"trial_type":"html-keyboard-response","trial_index":53,"time_elapsed":224003,"internal_node_id":"0.0-19.14-1.14"},{"rt":null,"stimulus":"<div style=\"background-color:#6dce98\"><h1 style=\"background-color:MediumSeaGreen\" >You won a prize! Well done!</h1><div style=\"background-color:#6dce98\"><h1 style=\"background-color:MediumSeaGreen\" >Only 10 left to go!</h1><img id=\"box\" src=\"img/prizes/coins.png\"></img><img id=\"box\" src=\"img/empty/blueopenbox.png\"></img></div>","key_press":null,"trial_type":"html-keyboard-response","trial_index":53,"time_elapsed":225510,"internal_node_id":"0.0-19.14-1.14"},{"rt":384,"stimulus":"<p>Choose a box,</p>","button_pressed":0,"trial_type":"html-button-response","trial_index":54,"time_elapsed":225904,"internal_node_id":"0.0-19.15-0.15"},{"rate":0.8210619530207698,"trial_type":"html-keyboard-response","trial_index":55,"time_elapsed":225904,"internal_node_id":"0.0-19.15-1.15"},{"rt":null,"stimulus":"<div style=\"background-color:#6dce98\"><h1 style=\"background-color:MediumSeaGreen\" >You won a prize! Well done!</h1><div style=\"background-color:#6dce98\"><h1 style=\"background-color:MediumSeaGreen\" >Only 9 left to go!</h1><img id=\"box\" src=\"img/prizes/beachball.png\"></img><img id=\"box\" src=\"img/empty/blueopenbox.png\"></img></div>","key_press":null,"trial_type":"html-keyboard-response","trial_index":55,"time_elapsed":227411,"internal_node_id":"0.0-19.15-1.15"},{"rt":401,"stimulus":"<p>Choose a box,</p>","button_pressed":0,"trial_type":"html-button-response","trial_index":56,"time_elapsed":227822,"internal_node_id":"0.0-19.16-0.16"},{"rate":0.8210619530207698,"trial_type":"html-keyboard-response","trial_index":57,"time_elapsed":227823,"internal_node_id":"0.0-19.16-1.16"},{"rt":null,"stimulus":"<div style=\"background-color:#6dce98\"><h1 style=\"background-color:MediumSeaGreen\" >You won a prize! Well done!</h1><div style=\"background-color:#6dce98\"><h1 style=\"background-color:MediumSeaGreen\" >Only 8 left to go!</h1><img id=\"box\" src=\"img/prizes/duck.png\"></img><img id=\"box\" src=\"img/empty/blueopenbox.png\"></img></div>","key_press":null,"trial_type":"html-keyboard-response","trial_index":57,"time_elapsed":229331,"internal_node_id":"0.0-19.16-1.16"},{"rt":450,"stimulus":"<p>Choose a box,</p>","button_pressed":0,"trial_type":"html-button-response","trial_index":58,"time_elapsed":229790,"internal_node_id":"0.0-19.17-0.17"},{"rate":0.8210619530207698,"trial_type":"html-keyboard-response","trial_index":59,"time_elapsed":229790,"internal_node_id":"0.0-19.17-1.17"},{"rt":null,"stimulus":"<div style=\"background-color:#ff7157\"><h1 style=\"background-color:Tomato\">Bad luck! There was no prize in the box!</h1><h1 style=\"background-color:Tomato\">Remember, you need to keep going until you have 20 prizes!</h1><img id=\"box\" src=\"img/sad/blueopenboxsadthumb.png\"></img></div>","key_press":null,"trial_type":"html-keyboard-response","trial_index":59,"time_elapsed":231295,"internal_node_id":"0.0-19.17-1.17"},{"rt":926,"stimulus":"<p>Choose a box,</p>","button_pressed":0,"trial_type":"html-button-response","trial_index":60,"time_elapsed":232231,"internal_node_id":"0.0-19.18-0.18"},{"rate":0.8210619530207698,"trial_type":"html-keyboard-response","trial_index":61,"time_elapsed":232232,"internal_node_id":"0.0-19.18-1.18"},{"rt":null,"stimulus":"<div style=\"background-color:#ff7157\"><h1 style=\"background-color:Tomato\">Bad luck! There was no prize in the box!</h1><h1 style=\"background-color:Tomato\">Remember, you need to keep going until you have 20 prizes!</h1><img id=\"box\" src=\"img/sad/blueopenboxsadthumb.png\"></img></div>","key_press":null,"trial_type":"html-keyboard-response","trial_index":61,"time_elapsed":233737,"internal_node_id":"0.0-19.18-1.18"},{"rt":451,"stimulus":"<p>Choose a box,</p>","button_pressed":0,"trial_type":"html-button-response","trial_index":62,"time_elapsed":234197,"internal_node_id":"0.0-19.19-0.19"},{"rate":0.8210619530207698,"trial_type":"html-keyboard-response","trial_index":63,"time_elapsed":234198,"internal_node_id":"0.0-19.19-1.19"},{"rt":null,"stimulus":"<div style=\"background-color:#6dce98\"><h1 style=\"background-color:MediumSeaGreen\" >You won a prize! Well done!</h1><div style=\"background-color:#6dce98\"><h1 style=\"background-color:MediumSeaGreen\" >Only 7 left to go!</h1><img id=\"box\" src=\"img/prizes/beachball.png\"></img><img id=\"box\" src=\"img/empty/blueopenbox.png\"></img></div>","key_press":null,"trial_type":"html-keyboard-response","trial_index":63,"time_elapsed":235705,"internal_node_id":"0.0-19.19-1.19"},{"rt":395,"stimulus":"<p>Choose a box,</p>","button_pressed":0,"trial_type":"html-button-response","trial_index":64,"time_elapsed":236110,"internal_node_id":"0.0-19.20-0.20"},{"rate":0.8210619530207698,"trial_type":"html-keyboard-response","trial_index":65,"time_elapsed":236110,"internal_node_id":"0.0-19.20-1.20"},{"rt":null,"stimulus":"<div style=\"background-color:#6dce98\"><h1 style=\"background-color:MediumSeaGreen\" >You won a prize! Well done!</h1><div style=\"background-color:#6dce98\"><h1 style=\"background-color:MediumSeaGreen\" >Only 6 left to go!</h1><img id=\"box\" src=\"img/prizes/yoyo.png\"></img><img id=\"box\" src=\"img/empty/blueopenbox.png\"></img></div>","key_press":null,"trial_type":"html-keyboard-response","trial_index":65,"time_elapsed":237618,"internal_node_id":"0.0-19.20-1.20"},{"rt":344,"stimulus":"<p>Choose a box,</p>","button_pressed":0,"trial_type":"html-button-response","trial_index":66,"time_elapsed":237972,"internal_node_id":"0.0-19.21-0.21"},{"rate":0.8210619530207698,"trial_type":"html-keyboard-response","trial_index":67,"time_elapsed":237972,"internal_node_id":"0.0-19.21-1.21"},{"rt":null,"stimulus":"<div style=\"background-color:#6dce98\"><h1 style=\"background-color:MediumSeaGreen\" >You won a prize! Well done!</h1><div style=\"background-color:#6dce98\"><h1 style=\"background-color:MediumSeaGreen\" >Only 5 left to go!</h1><img id=\"box\" src=\"img/prizes/coins.png\"></img><img id=\"box\" src=\"img/empty/blueopenbox.png\"></img></div>","key_press":null,"trial_type":"html-keyboard-response","trial_index":67,"time_elapsed":239479,"internal_node_id":"0.0-19.21-1.21"},{"rt":89,"stimulus":"<p>Choose a box,</p>","button_pressed":0,"trial_type":"html-button-response","trial_index":68,"time_elapsed":239580,"internal_node_id":"0.0-19.22-0.22"},{"rate":0.8210619530207698,"trial_type":"html-keyboard-response","trial_index":69,"time_elapsed":239580,"internal_node_id":"0.0-19.22-1.22"},{"rt":null,"stimulus":"<div style=\"background-color:#6dce98\"><h1 style=\"background-color:MediumSeaGreen\" >You won a prize! Well done!</h1><div style=\"background-color:#6dce98\"><h1 style=\"background-color:MediumSeaGreen\" >Only 4 left to go!</h1><img id=\"box\" src=\"img/prizes/duck.png\"></img><img id=\"box\" src=\"img/empty/blueopenbox.png\"></img></div>","key_press":null,"trial_type":"html-keyboard-response","trial_index":69,"time_elapsed":241088,"internal_node_id":"0.0-19.22-1.22"},{"rt":199,"stimulus":"<p>Choose a box,</p>","button_pressed":0,"trial_type":"html-button-response","trial_index":70,"time_elapsed":241296,"internal_node_id":"0.0-19.23-0.23"},{"rate":0.8210619530207698,"trial_type":"html-keyboard-response","trial_index":71,"time_elapsed":241296,"internal_node_id":"0.0-19.23-1.23"},{"rt":null,"stimulus":"<div style=\"background-color:#6dce98\"><h1 style=\"background-color:MediumSeaGreen\" >You won a prize! Well done!</h1><div style=\"background-color:#6dce98\"><h1 style=\"background-color:MediumSeaGreen\" >Only 3 left to go!</h1><img id=\"box\" src=\"img/prizes/yoyo.png\"></img><img id=\"box\" src=\"img/empty/blueopenbox.png\"></img></div>","key_press":null,"trial_type":"html-keyboard-response","trial_index":71,"time_elapsed":242803,"internal_node_id":"0.0-19.23-1.23"},{"rt":298,"stimulus":"<p>Choose a box,</p>","button_pressed":0,"trial_type":"html-button-response","trial_index":72,"time_elapsed":243109,"internal_node_id":"0.0-19.24-0.24"},{"rate":0.8210619530207698,"trial_type":"html-keyboard-response","trial_index":73,"time_elapsed":243110,"internal_node_id":"0.0-19.24-1.24"},{"rt":null,"stimulus":"<div style=\"background-color:#6dce98\"><h1 style=\"background-color:MediumSeaGreen\" >You won a prize! Well done!</h1><div style=\"background-color:#6dce98\"><h1 style=\"background-color:MediumSeaGreen\" >Only 2 left to go!</h1><img id=\"box\" src=\"img/prizes/coins.png\"></img><img id=\"box\" src=\"img/empty/blueopenbox.png\"></img></div>","key_press":null,"trial_type":"html-keyboard-response","trial_index":73,"time_elapsed":244616,"internal_node_id":"0.0-19.24-1.24"},{"rt":126,"stimulus":"<p>Choose a box,</p>","button_pressed":0,"trial_type":"html-button-response","trial_index":74,"time_elapsed":244752,"internal_node_id":"0.0-19.25-0.25"},{"rate":0.8210619530207698,"trial_type":"html-keyboard-response","trial_index":75,"time_elapsed":244752,"internal_node_id":"0.0-19.25-1.25"},{"rt":null,"stimulus":"<div style=\"background-color:#6dce98\"><h1 style=\"background-color:MediumSeaGreen\" >You won a prize! Well done!</h1><div style=\"background-color:#6dce98\"><h1 style=\"background-color:MediumSeaGreen\" >Only 1 left to go!</h1><img id=\"box\" src=\"img/prizes/lolipop.png\"></img><img id=\"box\" src=\"img/empty/blueopenbox.png\"></img></div>","key_press":null,"trial_type":"html-keyboard-response","trial_index":75,"time_elapsed":246260,"internal_node_id":"0.0-19.25-1.25"},{"rt":232,"stimulus":"<p>Choose a box,</p>","button_pressed":0,"trial_type":"html-button-response","trial_index":76,"time_elapsed":246501,"internal_node_id":"0.0-19.26-0.26"},{"rate":0.8210619530207698,"trial_type":"html-keyboard-response","trial_index":77,"time_elapsed":246501,"internal_node_id":"0.0-19.26-1.26"},{"rt":null,"stimulus":"<div style=\"background-color:#6dce98\"><h1 style=\"background-color:MediumSeaGreen\" >You won a prize! Well done!</h1><div style=\"background-color:#6dce98\"><h1 style=\"background-color:MediumSeaGreen\" >Only 0 left to go!</h1><img id=\"box\" src=\"img/prizes/flowers.png\"></img><img id=\"box\" src=\"img/empty/blueopenbox.png\"></img></div>","key_press":null,"trial_type":"html-keyboard-response","trial_index":77,"time_elapsed":248008,"internal_node_id":"0.0-19.26-1.26"},{"rt":60101,"responses":"{\"Q0\":\"bit odd\",\"Q1\":\"always clicking blue - once aware it almost always gave a gift \"}","trial_type":"survey-text","trial_index":78,"time_elapsed":308111,"internal_node_id":"0.0-20.0"}]