[{"view_history":"[{\"page_index\":0,\"viewing_time\":14056.780000217259},{\"page_index\":1,\"viewing_time\":9029.484999831766},{\"page_index\":2,\"viewing_time\":13451.009999960661},{\"page_index\":3,\"viewing_time\":13946.105000097305},{\"page_index\":4,\"viewing_time\":11472.915000282228},{\"page_index\":5,\"viewing_time\":9197.57999991998}]","rt":71155.20500019193,"trial_type":"instructions","trial_index":0,"time_elapsed":71159,"internal_node_id":"0.0-0.0"},{"rt":12648.254999890924,"responses":"{\"Q0\":\"Yes\",\"Q1\":\"Yes\",\"Q2\":\"Yes\"}","question_order":"[0,1,2]","trial_type":"survey-multi-choice","trial_index":1,"time_elapsed":83811,"internal_node_id":"0.0-1.0-0.0"},{"rt":30151.364999823272,"responses":"{\"Q0\":\"Yes\",\"Q1\":\"No\",\"Q2\":\"No\"}","question_order":"[0,1,2]","trial_type":"survey-multi-choice","trial_index":2,"time_elapsed":113966,"internal_node_id":"0.0-2.0-0.0"},{"rt":5719.099999871105,"responses":"{\"Q0\":\"Yes\",\"Q1\":\"Yes\",\"Q2\":\"Yes\"}","question_order":"[0,1,2]","trial_type":"survey-multi-choice","trial_index":3,"time_elapsed":122316,"internal_node_id":"0.0-2.1-0.1"},{"rt":6199.395000003278,"responses":"{\"Q0\":\"5a7c5444ae9a0b0001a9994e\"}","trial_type":"survey-text","trial_index":4,"time_elapsed":128521,"internal_node_id":"0.0-3.0"},{"rt":11650.779999792576,"responses":"{\"Q0\":\"Female\",\"Q1\":\"45-54\"}","question_order":"[0,1]","trial_type":"survey-multi-choice","trial_index":5,"time_elapsed":140174,"internal_node_id":"0.0-4.0"},{"rt":8003.674999810755,"responses":"{\"Q0\":\"\"}","trial_type":"survey-text","trial_index":6,"time_elapsed":148183,"internal_node_id":"0.0-5.0"},{"view_history":"[{\"page_index\":0,\"viewing_time\":3624.1599996574223}]","rt":3624.539999756962,"trial_type":"instructions","trial_index":7,"time_elapsed":151808,"internal_node_id":"0.0-6.0"},{"rt":19580.75000019744,"responses":"{\"Interested\":2,\"Distressed\":3,\"Excited\":0,\"Upset\":1}","question_order":"[0,1,2,3]","trial_type":"survey-likert","trial_index":8,"time_elapsed":171393,"internal_node_id":"0.0-7.0"},{"rt":12998.75499960035,"responses":"{\"Strong\":2,\"Guilty\":4,\"Scared\":2,\"Hostile\":3}","question_order":"[0,1,2,3]","trial_type":"survey-likert","trial_index":9,"time_elapsed":184395,"internal_node_id":"0.0-8.0"},{"rt":12105.940000154078,"responses":"{\"Enthusiastic\":2,\"Proud\":1,\"Irritable\":3,\"Alert\":1}","question_order":"[0,1,2,3]","trial_type":"survey-likert","trial_index":10,"time_elapsed":196505,"internal_node_id":"0.0-9.0"},{"rt":17349.504999816418,"responses":"{\"Ashamed\":3,\"Inspired\":1,\"Nervous\":3,\"Determined\":1}","question_order":"[0,1,2,3]","trial_type":"survey-likert","trial_index":11,"time_elapsed":213858,"internal_node_id":"0.0-10.0"},{"rt":13353.635000064969,"responses":"{\"Attentive\":2,\"Jittery\":2,\"Active\":3,\"Afraid\":1}","question_order":"[0,1,2,3]","trial_type":"survey-likert","trial_index":12,"time_elapsed":227215,"internal_node_id":"0.0-11.0"},{"rt":27122.995000332594,"responses":"{\"Q0\":1,\"Q1\":1,\"Q2\":0,\"Q3\":3}","question_order":"[0,1,2,3]","trial_type":"survey-likert","trial_index":13,"time_elapsed":254342,"internal_node_id":"0.0-12.0"},{"rt":18643.774999771267,"responses":"{\"Q0\":0,\"Q1\":2,\"Q2\":2,\"Q3\":0}","question_order":"[0,1,2,3]","trial_type":"survey-likert","trial_index":14,"time_elapsed":272989,"internal_node_id":"0.0-13.0"},{"rt":21080.190000124276,"responses":"{\"Q0\":1,\"Q1\":3,\"Q2\":3,\"Q3\":2}","question_order":"[0,1,2,3]","trial_type":"survey-likert","trial_index":15,"time_elapsed":294072,"internal_node_id":"0.0-14.0"},{"rt":10316.420000046492,"responses":"{\"Q0\":0,\"Q1\":3,\"Q2\":2}","question_order":"[0,1,2]","trial_type":"survey-likert","trial_index":16,"time_elapsed":304392,"internal_node_id":"0.0-15.0"},{"view_history":"[{\"page_index\":0,\"viewing_time\":3719.2500000819564},{\"page_index\":1,\"viewing_time\":10532.234999816865},{\"page_index\":2,\"viewing_time\":21944.9550001882}]","rt":36196.94000016898,"trial_type":"instructions","trial_index":17,"time_elapsed":340595,"internal_node_id":"0.0-16.0"},{"rt":2982.195000164211,"stimulus":"<p>Choose a box,</p>","button_pressed":0,"trial_type":"html-button-response","trial_index":18,"time_elapsed":343583,"internal_node_id":"0.0-17.0-0.0"},{"rate":0.31245560284914764,"trial_type":"html-keyboard-response","trial_index":19,"time_elapsed":343583,"internal_node_id":"0.0-17.0-1.0"},{"rt":null,"stimulus":"<div style=\"background-color:#ff7157\"><h1 style=\"background-color:Tomato\">Bad luck! There was no prize in the box!</h1><h1 style=\"background-color:Tomato\">Remember, you need to keep going until you have 20 prizes!</h1><img id=\"box\" src=\"img/sad/blueopenboxsadthumb.png\"></img></div>","key_press":null,"trial_type":"html-keyboard-response","trial_index":19,"time_elapsed":345087,"internal_node_id":"0.0-17.0-1.0"},{"rt":2412.785000167787,"stimulus":"<p>Choose a box,</p>","button_pressed":3,"trial_type":"html-button-response","trial_index":20,"time_elapsed":347504,"internal_node_id":"0.0-17.0-0.1"},{"rate":0.5386304050134982,"trial_type":"html-keyboard-response","trial_index":21,"time_elapsed":347504,"internal_node_id":"0.0-17.0-1.1"},{"rt":null,"stimulus":"<div style=\"background-color:#ff7157\"><h1 style=\"background-color:Tomato\">Bad luck! There was no prize in the box!</h1><h1 style=\"background-color:Tomato\">Remember, you need to keep going until you have 20 prizes!</h1><img id=\"box\" src=\"img/sad/redopenboxsadthumb.png\"></img></div>","key_press":null,"trial_type":"html-keyboard-response","trial_index":21,"time_elapsed":349007,"internal_node_id":"0.0-17.0-1.1"},{"rt":2413.6099996976554,"stimulus":"<p>Choose a box,</p>","button_pressed":2,"trial_type":"html-button-response","trial_index":22,"time_elapsed":351424,"internal_node_id":"0.0-17.0-0.2"},{"rate":0.4310767564385209,"trial_type":"html-keyboard-response","trial_index":23,"time_elapsed":351424,"internal_node_id":"0.0-17.0-1.2"},{"rt":null,"stimulus":"<div style=\"background-color:#6dce98\"><h1 style=\"background-color:MediumSeaGreen\" >You won a prize! Well done!</h1><div style=\"background-color:#6dce98\"><h1 style=\"background-color:MediumSeaGreen\" >Only 19 left to go!</h1><img id=\"box\" src=\"img/prizes/choc.png\"></img><img id=\"box\" src=\"img/empty/purpleopenbox.png\"></img></div>","key_press":null,"trial_type":"html-keyboard-response","trial_index":23,"time_elapsed":352928,"internal_node_id":"0.0-17.0-1.2"},{"view_history":"[{\"page_index\":0,\"viewing_time\":2083.959999959916}]","rt":2084.480000194162,"trial_type":"instructions","trial_index":24,"time_elapsed":355033,"internal_node_id":"0.0-18.0"},{"rt":1485.3650000877678,"stimulus":"<p>Choose a box,</p>","button_pressed":2,"trial_type":"html-button-response","trial_index":25,"time_elapsed":356520,"internal_node_id":"0.0-19.0-0.0"},{"rate":0.4693757604154816,"trial_type":"html-keyboard-response","trial_index":26,"time_elapsed":356521,"internal_node_id":"0.0-19.0-1.0"},{"rt":null,"stimulus":"<div style=\"background-color:#ff7157\"><h1 style=\"background-color:Tomato\">Bad luck! There was no prize in the box!</h1><h1 style=\"background-color:Tomato\">Remember, you need to keep going until you have 20 prizes!</h1><img id=\"box\" src=\"img/sad/purpleopenboxsadthumb.png\"></img></div>","key_press":null,"trial_type":"html-keyboard-response","trial_index":26,"time_elapsed":358023,"internal_node_id":"0.0-19.0-1.0"},{"rt":1467.6749999634922,"stimulus":"<p>Choose a box,</p>","button_pressed":0,"trial_type":"html-button-response","trial_index":27,"time_elapsed":359495,"internal_node_id":"0.0-19.1-0.1"},{"rate":0.12427746645910487,"trial_type":"html-keyboard-response","trial_index":28,"time_elapsed":359495,"internal_node_id":"0.0-19.1-1.1"},{"rt":null,"stimulus":"<div style=\"background-color:#ff7157\"><h1 style=\"background-color:Tomato\">Bad luck! There was no prize in the box!</h1><h1 style=\"background-color:Tomato\">Remember, you need to keep going until you have 20 prizes!</h1><img id=\"box\" src=\"img/sad/blueopenboxsadthumb.png\"></img></div>","key_press":null,"trial_type":"html-keyboard-response","trial_index":28,"time_elapsed":360998,"internal_node_id":"0.0-19.1-1.1"},{"rt":1037.080000154674,"stimulus":"<p>Choose a box,</p>","button_pressed":1,"trial_type":"html-button-response","trial_index":29,"time_elapsed":362037,"internal_node_id":"0.0-19.2-0.2"},{"rate":0.8823064232970993,"trial_type":"html-keyboard-response","trial_index":30,"time_elapsed":362037,"internal_node_id":"0.0-19.2-1.2"},{"rt":null,"stimulus":"<div style=\"background-color:#6dce98\"><h1 style=\"background-color:MediumSeaGreen\" >You won a prize! Well done!</h1><div style=\"background-color:#6dce98\"><h1 style=\"background-color:MediumSeaGreen\" >Only 19 left to go!</h1><img id=\"box\" src=\"img/prizes/choc.png\"></img><img id=\"box\" src=\"img/empty/greenopenbox.png\"></img></div>","key_press":null,"trial_type":"html-keyboard-response","trial_index":30,"time_elapsed":363539,"internal_node_id":"0.0-19.2-1.2"},{"rt":1678.1999999657273,"stimulus":"<p>Choose a box,</p>","button_pressed":3,"trial_type":"html-button-response","trial_index":31,"time_elapsed":365221,"internal_node_id":"0.0-19.3-0.3"},{"rate":0.2735591170433989,"trial_type":"html-keyboard-response","trial_index":32,"time_elapsed":365221,"internal_node_id":"0.0-19.3-1.3"},{"rt":null,"stimulus":"<div style=\"background-color:#ff7157\"><h1 style=\"background-color:Tomato\">Bad luck! There was no prize in the box!</h1><h1 style=\"background-color:Tomato\">Remember, you need to keep going until you have 20 prizes!</h1><img id=\"box\" src=\"img/sad/redopenboxsadthumb.png\"></img></div>","key_press":null,"trial_type":"html-keyboard-response","trial_index":32,"time_elapsed":366723,"internal_node_id":"0.0-19.3-1.3"},{"rt":1022.9899999685585,"stimulus":"<p>Choose a box,</p>","button_pressed":1,"trial_type":"html-button-response","trial_index":33,"time_elapsed":367748,"internal_node_id":"0.0-19.4-0.4"},{"rate":0.8823064232970993,"trial_type":"html-keyboard-response","trial_index":34,"time_elapsed":367749,"internal_node_id":"0.0-19.4-1.4"},{"rt":null,"stimulus":"<div style=\"background-color:#6dce98\"><h1 style=\"background-color:MediumSeaGreen\" >You won a prize! Well done!</h1><div style=\"background-color:#6dce98\"><h1 style=\"background-color:MediumSeaGreen\" >Only 18 left to go!</h1><img id=\"box\" src=\"img/prizes/beachball.png\"></img><img id=\"box\" src=\"img/empty/greenopenbox.png\"></img></div>","key_press":null,"trial_type":"html-keyboard-response","trial_index":34,"time_elapsed":369251,"internal_node_id":"0.0-19.4-1.4"},{"rt":840.4149999842048,"stimulus":"<p>Choose a box,</p>","button_pressed":1,"trial_type":"html-button-response","trial_index":35,"time_elapsed":370096,"internal_node_id":"0.0-19.5-0.5"},{"rate":0.8823064232970993,"trial_type":"html-keyboard-response","trial_index":36,"time_elapsed":370096,"internal_node_id":"0.0-19.5-1.5"},{"rt":null,"stimulus":"<div style=\"background-color:#6dce98\"><h1 style=\"background-color:MediumSeaGreen\" >You won a prize! Well done!</h1><div style=\"background-color:#6dce98\"><h1 style=\"background-color:MediumSeaGreen\" >Only 17 left to go!</h1><img id=\"box\" src=\"img/prizes/lolipop.png\"></img><img id=\"box\" src=\"img/empty/greenopenbox.png\"></img></div>","key_press":null,"trial_type":"html-keyboard-response","trial_index":36,"time_elapsed":371599,"internal_node_id":"0.0-19.5-1.5"},{"rt":800.5949999205768,"stimulus":"<p>Choose a box,</p>","button_pressed":1,"trial_type":"html-button-response","trial_index":37,"time_elapsed":372403,"internal_node_id":"0.0-19.6-0.6"},{"rate":0.8823064232970993,"trial_type":"html-keyboard-response","trial_index":38,"time_elapsed":372403,"internal_node_id":"0.0-19.6-1.6"},{"rt":null,"stimulus":"<div style=\"background-color:#6dce98\"><h1 style=\"background-color:MediumSeaGreen\" >You won a prize! Well done!</h1><div style=\"background-color:#6dce98\"><h1 style=\"background-color:MediumSeaGreen\" >Only 16 left to go!</h1><img id=\"box\" src=\"img/prizes/ring.png\"></img><img id=\"box\" src=\"img/empty/greenopenbox.png\"></img></div>","key_press":null,"trial_type":"html-keyboard-response","trial_index":38,"time_elapsed":373905,"internal_node_id":"0.0-19.6-1.6"},{"rt":805.9350000694394,"stimulus":"<p>Choose a box,</p>","button_pressed":1,"trial_type":"html-button-response","trial_index":39,"time_elapsed":374715,"internal_node_id":"0.0-19.7-0.7"},{"rate":0.8823064232970993,"trial_type":"html-keyboard-response","trial_index":40,"time_elapsed":374715,"internal_node_id":"0.0-19.7-1.7"},{"rt":null,"stimulus":"<div style=\"background-color:#6dce98\"><h1 style=\"background-color:MediumSeaGreen\" >You won a prize! Well done!</h1><div style=\"background-color:#6dce98\"><h1 style=\"background-color:MediumSeaGreen\" >Only 15 left to go!</h1><img id=\"box\" src=\"img/prizes/yoyo.png\"></img><img id=\"box\" src=\"img/empty/greenopenbox.png\"></img></div>","key_press":null,"trial_type":"html-keyboard-response","trial_index":40,"time_elapsed":376218,"internal_node_id":"0.0-19.7-1.7"},{"rt":842.3349997028708,"stimulus":"<p>Choose a box,</p>","button_pressed":1,"trial_type":"html-button-response","trial_index":41,"time_elapsed":377064,"internal_node_id":"0.0-19.8-0.8"},{"rate":0.8823064232970993,"trial_type":"html-keyboard-response","trial_index":42,"time_elapsed":377064,"internal_node_id":"0.0-19.8-1.8"},{"rt":null,"stimulus":"<div style=\"background-color:#ff7157\"><h1 style=\"background-color:Tomato\">Bad luck! There was no prize in the box!</h1><h1 style=\"background-color:Tomato\">Remember, you need to keep going until you have 20 prizes!</h1><img id=\"box\" src=\"img/sad/greenopenboxsadthumb.png\"></img></div>","key_press":null,"trial_type":"html-keyboard-response","trial_index":42,"time_elapsed":378567,"internal_node_id":"0.0-19.8-1.8"},{"rt":1167.9700003005564,"stimulus":"<p>Choose a box,</p>","button_pressed":2,"trial_type":"html-button-response","trial_index":43,"time_elapsed":379738,"internal_node_id":"0.0-19.9-0.9"},{"rate":0.4693757604154816,"trial_type":"html-keyboard-response","trial_index":44,"time_elapsed":379738,"internal_node_id":"0.0-19.9-1.9"},{"rt":null,"stimulus":"<div style=\"background-color:#6dce98\"><h1 style=\"background-color:MediumSeaGreen\" >You won a prize! Well done!</h1><div style=\"background-color:#6dce98\"><h1 style=\"background-color:MediumSeaGreen\" >Only 14 left to go!</h1><img id=\"box\" src=\"img/prizes/bear.png\"></img><img id=\"box\" src=\"img/empty/purpleopenbox.png\"></img></div>","key_press":null,"trial_type":"html-keyboard-response","trial_index":44,"time_elapsed":381242,"internal_node_id":"0.0-19.9-1.9"},{"rt":927.5500001385808,"stimulus":"<p>Choose a box,</p>","button_pressed":2,"trial_type":"html-button-response","trial_index":45,"time_elapsed":382175,"internal_node_id":"0.0-19.10-0.10"},{"rate":0.4693757604154816,"trial_type":"html-keyboard-response","trial_index":46,"time_elapsed":382175,"internal_node_id":"0.0-19.10-1.10"},{"rt":null,"stimulus":"<div style=\"background-color:#ff7157\"><h1 style=\"background-color:Tomato\">Bad luck! There was no prize in the box!</h1><h1 style=\"background-color:Tomato\">Remember, you need to keep going until you have 20 prizes!</h1><img id=\"box\" src=\"img/sad/purpleopenboxsadthumb.png\"></img></div>","key_press":null,"trial_type":"html-keyboard-response","trial_index":46,"time_elapsed":383678,"internal_node_id":"0.0-19.10-1.10"},{"rt":1156.8750003352761,"stimulus":"<p>Choose a box,</p>","button_pressed":1,"trial_type":"html-button-response","trial_index":47,"time_elapsed":384839,"internal_node_id":"0.0-19.11-0.11"},{"rate":0.8823064232970993,"trial_type":"html-keyboard-response","trial_index":48,"time_elapsed":384839,"internal_node_id":"0.0-19.11-1.11"},{"rt":null,"stimulus":"<div style=\"background-color:#6dce98\"><h1 style=\"background-color:MediumSeaGreen\" >You won a prize! Well done!</h1><div style=\"background-color:#6dce98\"><h1 style=\"background-color:MediumSeaGreen\" >Only 13 left to go!</h1><img id=\"box\" src=\"img/prizes/choc.png\"></img><img id=\"box\" src=\"img/empty/greenopenbox.png\"></img></div>","key_press":null,"trial_type":"html-keyboard-response","trial_index":48,"time_elapsed":386341,"internal_node_id":"0.0-19.11-1.11"},{"rt":1044.8200004175305,"stimulus":"<p>Choose a box,</p>","button_pressed":1,"trial_type":"html-button-response","trial_index":49,"time_elapsed":387388,"internal_node_id":"0.0-19.12-0.12"},{"rate":0.8823064232970993,"trial_type":"html-keyboard-response","trial_index":50,"time_elapsed":387388,"internal_node_id":"0.0-19.12-1.12"},{"rt":null,"stimulus":"<div style=\"background-color:#6dce98\"><h1 style=\"background-color:MediumSeaGreen\" >You won a prize! Well done!</h1><div style=\"background-color:#6dce98\"><h1 style=\"background-color:MediumSeaGreen\" >Only 12 left to go!</h1><img id=\"box\" src=\"img/prizes/duck.png\"></img><img id=\"box\" src=\"img/empty/greenopenbox.png\"></img></div>","key_press":null,"trial_type":"html-keyboard-response","trial_index":50,"time_elapsed":388891,"internal_node_id":"0.0-19.12-1.12"},{"rt":958.4050001576543,"stimulus":"<p>Choose a box,</p>","button_pressed":1,"trial_type":"html-button-response","trial_index":51,"time_elapsed":389852,"internal_node_id":"0.0-19.13-0.13"},{"rate":0.8823064232970993,"trial_type":"html-keyboard-response","trial_index":52,"time_elapsed":389853,"internal_node_id":"0.0-19.13-1.13"},{"rt":null,"stimulus":"<div style=\"background-color:#6dce98\"><h1 style=\"background-color:MediumSeaGreen\" >You won a prize! Well done!</h1><div style=\"background-color:#6dce98\"><h1 style=\"background-color:MediumSeaGreen\" >Only 11 left to go!</h1><img id=\"box\" src=\"img/prizes/flowers.png\"></img><img id=\"box\" src=\"img/empty/greenopenbox.png\"></img></div>","key_press":null,"trial_type":"html-keyboard-response","trial_index":52,"time_elapsed":391355,"internal_node_id":"0.0-19.13-1.13"},{"rt":814.2200000584126,"stimulus":"<p>Choose a box,</p>","button_pressed":1,"trial_type":"html-button-response","trial_index":53,"time_elapsed":392173,"internal_node_id":"0.0-19.14-0.14"},{"rate":0.8823064232970993,"trial_type":"html-keyboard-response","trial_index":54,"time_elapsed":392173,"internal_node_id":"0.0-19.14-1.14"},{"rt":null,"stimulus":"<div style=\"background-color:#6dce98\"><h1 style=\"background-color:MediumSeaGreen\" >You won a prize! Well done!</h1><div style=\"background-color:#6dce98\"><h1 style=\"background-color:MediumSeaGreen\" >Only 10 left to go!</h1><img id=\"box\" src=\"img/prizes/duck.png\"></img><img id=\"box\" src=\"img/empty/greenopenbox.png\"></img></div>","key_press":null,"trial_type":"html-keyboard-response","trial_index":54,"time_elapsed":393677,"internal_node_id":"0.0-19.14-1.14"},{"rt":810.3800001554191,"stimulus":"<p>Choose a box,</p>","button_pressed":1,"trial_type":"html-button-response","trial_index":55,"time_elapsed":394489,"internal_node_id":"0.0-19.15-0.15"},{"rate":0.8823064232970993,"trial_type":"html-keyboard-response","trial_index":56,"time_elapsed":394489,"internal_node_id":"0.0-19.15-1.15"},{"rt":null,"stimulus":"<div style=\"background-color:#6dce98\"><h1 style=\"background-color:MediumSeaGreen\" >You won a prize! Well done!</h1><div style=\"background-color:#6dce98\"><h1 style=\"background-color:MediumSeaGreen\" >Only 9 left to go!</h1><img id=\"box\" src=\"img/prizes/lolipop.png\"></img><img id=\"box\" src=\"img/empty/greenopenbox.png\"></img></div>","key_press":null,"trial_type":"html-keyboard-response","trial_index":56,"time_elapsed":395992,"internal_node_id":"0.0-19.15-1.15"},{"rt":710.5399998836219,"stimulus":"<p>Choose a box,</p>","button_pressed":1,"trial_type":"html-button-response","trial_index":57,"time_elapsed":396706,"internal_node_id":"0.0-19.16-0.16"},{"rate":0.8823064232970993,"trial_type":"html-keyboard-response","trial_index":58,"time_elapsed":396707,"internal_node_id":"0.0-19.16-1.16"},{"rt":null,"stimulus":"<div style=\"background-color:#6dce98\"><h1 style=\"background-color:MediumSeaGreen\" >You won a prize! Well done!</h1><div style=\"background-color:#6dce98\"><h1 style=\"background-color:MediumSeaGreen\" >Only 8 left to go!</h1><img id=\"box\" src=\"img/prizes/bear.png\"></img><img id=\"box\" src=\"img/empty/greenopenbox.png\"></img></div>","key_press":null,"trial_type":"html-keyboard-response","trial_index":58,"time_elapsed":398209,"internal_node_id":"0.0-19.16-1.16"},{"rt":868.555000051856,"stimulus":"<p>Choose a box,</p>","button_pressed":1,"trial_type":"html-button-response","trial_index":59,"time_elapsed":399081,"internal_node_id":"0.0-19.17-0.17"},{"rate":0.8823064232970993,"trial_type":"html-keyboard-response","trial_index":60,"time_elapsed":399081,"internal_node_id":"0.0-19.17-1.17"},{"rt":null,"stimulus":"<div style=\"background-color:#6dce98\"><h1 style=\"background-color:MediumSeaGreen\" >You won a prize! Well done!</h1><div style=\"background-color:#6dce98\"><h1 style=\"background-color:MediumSeaGreen\" >Only 7 left to go!</h1><img id=\"box\" src=\"img/prizes/duck.png\"></img><img id=\"box\" src=\"img/empty/greenopenbox.png\"></img></div>","key_press":null,"trial_type":"html-keyboard-response","trial_index":60,"time_elapsed":400584,"internal_node_id":"0.0-19.17-1.17"},{"rt":686.9300003163517,"stimulus":"<p>Choose a box,</p>","button_pressed":1,"trial_type":"html-button-response","trial_index":61,"time_elapsed":401274,"internal_node_id":"0.0-19.18-0.18"},{"rate":0.8823064232970993,"trial_type":"html-keyboard-response","trial_index":62,"time_elapsed":401277,"internal_node_id":"0.0-19.18-1.18"},{"rt":null,"stimulus":"<div style=\"background-color:#6dce98\"><h1 style=\"background-color:MediumSeaGreen\" >You won a prize! Well done!</h1><div style=\"background-color:#6dce98\"><h1 style=\"background-color:MediumSeaGreen\" >Only 6 left to go!</h1><img id=\"box\" src=\"img/prizes/bear.png\"></img><img id=\"box\" src=\"img/empty/greenopenbox.png\"></img></div>","key_press":null,"trial_type":"html-keyboard-response","trial_index":62,"time_elapsed":402780,"internal_node_id":"0.0-19.18-1.18"},{"rt":819.5050000213087,"stimulus":"<p>Choose a box,</p>","button_pressed":1,"trial_type":"html-button-response","trial_index":63,"time_elapsed":403604,"internal_node_id":"0.0-19.19-0.19"},{"rate":0.8823064232970993,"trial_type":"html-keyboard-response","trial_index":64,"time_elapsed":403604,"internal_node_id":"0.0-19.19-1.19"},{"rt":null,"stimulus":"<div style=\"background-color:#6dce98\"><h1 style=\"background-color:MediumSeaGreen\" >You won a prize! Well done!</h1><div style=\"background-color:#6dce98\"><h1 style=\"background-color:MediumSeaGreen\" >Only 5 left to go!</h1><img id=\"box\" src=\"img/prizes/coins.png\"></img><img id=\"box\" src=\"img/empty/greenopenbox.png\"></img></div>","key_press":null,"trial_type":"html-keyboard-response","trial_index":64,"time_elapsed":405107,"internal_node_id":"0.0-19.19-1.19"},{"rt":812.9600002430379,"stimulus":"<p>Choose a box,</p>","button_pressed":1,"trial_type":"html-button-response","trial_index":65,"time_elapsed":405924,"internal_node_id":"0.0-19.20-0.20"},{"rate":0.8823064232970993,"trial_type":"html-keyboard-response","trial_index":66,"time_elapsed":405924,"internal_node_id":"0.0-19.20-1.20"},{"rt":null,"stimulus":"<div style=\"background-color:#6dce98\"><h1 style=\"background-color:MediumSeaGreen\" >You won a prize! Well done!</h1><div style=\"background-color:#6dce98\"><h1 style=\"background-color:MediumSeaGreen\" >Only 4 left to go!</h1><img id=\"box\" src=\"img/prizes/flowers.png\"></img><img id=\"box\" src=\"img/empty/greenopenbox.png\"></img></div>","key_press":null,"trial_type":"html-keyboard-response","trial_index":66,"time_elapsed":407427,"internal_node_id":"0.0-19.20-1.20"},{"rt":708.6749998852611,"stimulus":"<p>Choose a box,</p>","button_pressed":1,"trial_type":"html-button-response","trial_index":67,"time_elapsed":408140,"internal_node_id":"0.0-19.21-0.21"},{"rate":0.8823064232970993,"trial_type":"html-keyboard-response","trial_index":68,"time_elapsed":408140,"internal_node_id":"0.0-19.21-1.21"},{"rt":null,"stimulus":"<div style=\"background-color:#6dce98\"><h1 style=\"background-color:MediumSeaGreen\" >You won a prize! Well done!</h1><div style=\"background-color:#6dce98\"><h1 style=\"background-color:MediumSeaGreen\" >Only 3 left to go!</h1><img id=\"box\" src=\"img/prizes/ring.png\"></img><img id=\"box\" src=\"img/empty/greenopenbox.png\"></img></div>","key_press":null,"trial_type":"html-keyboard-response","trial_index":68,"time_elapsed":409643,"internal_node_id":"0.0-19.21-1.21"},{"rt":768.1249999441206,"stimulus":"<p>Choose a box,</p>","button_pressed":1,"trial_type":"html-button-response","trial_index":69,"time_elapsed":410414,"internal_node_id":"0.0-19.22-0.22"},{"rate":0.8823064232970993,"trial_type":"html-keyboard-response","trial_index":70,"time_elapsed":410414,"internal_node_id":"0.0-19.22-1.22"},{"rt":null,"stimulus":"<div style=\"background-color:#6dce98\"><h1 style=\"background-color:MediumSeaGreen\" >You won a prize! Well done!</h1><div style=\"background-color:#6dce98\"><h1 style=\"background-color:MediumSeaGreen\" >Only 2 left to go!</h1><img id=\"box\" src=\"img/prizes/coins.png\"></img><img id=\"box\" src=\"img/empty/greenopenbox.png\"></img></div>","key_press":null,"trial_type":"html-keyboard-response","trial_index":70,"time_elapsed":411917,"internal_node_id":"0.0-19.22-1.22"},{"rt":659.1600002720952,"stimulus":"<p>Choose a box,</p>","button_pressed":1,"trial_type":"html-button-response","trial_index":71,"time_elapsed":412579,"internal_node_id":"0.0-19.23-0.23"},{"rate":0.8823064232970993,"trial_type":"html-keyboard-response","trial_index":72,"time_elapsed":412580,"internal_node_id":"0.0-19.23-1.23"},{"rt":null,"stimulus":"<div style=\"background-color:#ff7157\"><h1 style=\"background-color:Tomato\">Bad luck! There was no prize in the box!</h1><h1 style=\"background-color:Tomato\">Remember, you need to keep going until you have 20 prizes!</h1><img id=\"box\" src=\"img/sad/greenopenboxsadthumb.png\"></img></div>","key_press":null,"trial_type":"html-keyboard-response","trial_index":72,"time_elapsed":414082,"internal_node_id":"0.0-19.23-1.23"},{"rt":1008.6699998937547,"stimulus":"<p>Choose a box,</p>","button_pressed":2,"trial_type":"html-button-response","trial_index":73,"time_elapsed":415094,"internal_node_id":"0.0-19.24-0.24"},{"rate":0.4693757604154816,"trial_type":"html-keyboard-response","trial_index":74,"time_elapsed":415095,"internal_node_id":"0.0-19.24-1.24"},{"rt":null,"stimulus":"<div style=\"background-color:#ff7157\"><h1 style=\"background-color:Tomato\">Bad luck! There was no prize in the box!</h1><h1 style=\"background-color:Tomato\">Remember, you need to keep going until you have 20 prizes!</h1><img id=\"box\" src=\"img/sad/purpleopenboxsadthumb.png\"></img></div>","key_press":null,"trial_type":"html-keyboard-response","trial_index":74,"time_elapsed":416597,"internal_node_id":"0.0-19.24-1.24"},{"rt":886.7750000208616,"stimulus":"<p>Choose a box,</p>","button_pressed":1,"trial_type":"html-button-response","trial_index":75,"time_elapsed":417487,"internal_node_id":"0.0-19.25-0.25"},{"rate":0.8823064232970993,"trial_type":"html-keyboard-response","trial_index":76,"time_elapsed":417487,"internal_node_id":"0.0-19.25-1.25"},{"rt":null,"stimulus":"<div style=\"background-color:#6dce98\"><h1 style=\"background-color:MediumSeaGreen\" >You won a prize! Well done!</h1><div style=\"background-color:#6dce98\"><h1 style=\"background-color:MediumSeaGreen\" >Only 1 left to go!</h1><img id=\"box\" src=\"img/prizes/duck.png\"></img><img id=\"box\" src=\"img/empty/greenopenbox.png\"></img></div>","key_press":null,"trial_type":"html-keyboard-response","trial_index":76,"time_elapsed":418989,"internal_node_id":"0.0-19.25-1.25"},{"rt":984.5599997788668,"stimulus":"<p>Choose a box,</p>","button_pressed":1,"trial_type":"html-button-response","trial_index":77,"time_elapsed":419977,"internal_node_id":"0.0-19.26-0.26"},{"rate":0.8823064232970993,"trial_type":"html-keyboard-response","trial_index":78,"time_elapsed":419977,"internal_node_id":"0.0-19.26-1.26"},{"rt":null,"stimulus":"<div style=\"background-color:#6dce98\"><h1 style=\"background-color:MediumSeaGreen\" >You won a prize! Well done!</h1><div style=\"background-color:#6dce98\"><h1 style=\"background-color:MediumSeaGreen\" >Only 0 left to go!</h1><img id=\"box\" src=\"img/prizes/lolipop.png\"></img><img id=\"box\" src=\"img/empty/greenopenbox.png\"></img></div>","key_press":null,"trial_type":"html-keyboard-response","trial_index":78,"time_elapsed":421481,"internal_node_id":"0.0-19.26-1.26"},{"rt":109062.85499967635,"responses":"{\"Q0\":\"quite strange, not what I expected \",\"Q1\":\"I kept choosing the green box as it seemed the easiest way to get the prize. I liked other colours better but green was the best one to go for. \"}","trial_type":"survey-text","trial_index":79,"time_elapsed":530567,"internal_node_id":"0.0-20.0"}]