[{"view_history":"[{\"page_index\":0,\"viewing_time\":20742.599999997765},{\"page_index\":1,\"viewing_time\":6450.800000020536},{\"page_index\":2,\"viewing_time\":3633.6000000010245},{\"page_index\":3,\"viewing_time\":4413.799999980256},{\"page_index\":4,\"viewing_time\":5604.000000021188},{\"page_index\":5,\"viewing_time\":9138.399999996182}]","rt":49986.20000001392,"trial_type":"instructions","trial_index":0,"time_elapsed":49995,"internal_node_id":"0.0-0.0"},{"rt":14747.699999978067,"responses":"{\"Q0\":\"Yes\",\"Q1\":\"Yes\",\"Q2\":\"Yes\"}","question_order":"[0,1,2]","trial_type":"survey-multi-choice","trial_index":1,"time_elapsed":64766,"internal_node_id":"0.0-1.0-0.0"},{"rt":17214.799999987008,"responses":"{\"Q0\":\"Yes\",\"Q1\":\"Yes\",\"Q2\":\"Yes\"}","question_order":"[0,1,2]","trial_type":"survey-multi-choice","trial_index":2,"time_elapsed":82000,"internal_node_id":"0.0-2.0-0.0"},{"rt":10016.399999993155,"responses":"{\"Q0\":\"603904fbf575212e89567767\"}","trial_type":"survey-text","trial_index":3,"time_elapsed":92049,"internal_node_id":"0.0-3.0"},{"rt":6346.799999999348,"responses":"{\"Q0\":\"Female\",\"Q1\":\"18-25\"}","question_order":"[0,1]","trial_type":"survey-multi-choice","trial_index":4,"time_elapsed":98406,"internal_node_id":"0.0-4.0"},{"rt":6336.19999999064,"responses":"{\"Q0\":\"\"}","trial_type":"survey-text","trial_index":5,"time_elapsed":104768,"internal_node_id":"0.0-5.0"},{"view_history":"[{\"page_index\":0,\"viewing_time\":6345.300000015413}]","rt":6347.700000012992,"trial_type":"instructions","trial_index":6,"time_elapsed":111122,"internal_node_id":"0.0-6.0"},{"rt":39000.50000002375,"responses":"{\"Interested\":1,\"Distressed\":3,\"Excited\":3,\"Upset\":3}","question_order":"[0,1,2,3]","trial_type":"survey-likert","trial_index":7,"time_elapsed":150152,"internal_node_id":"0.0-7.0"},{"rt":16535.699999978533,"responses":"{\"Strong\":3,\"Guilty\":0,\"Scared\":4,\"Hostile\":2}","question_order":"[0,1,2,3]","trial_type":"survey-likert","trial_index":8,"time_elapsed":166702,"internal_node_id":"0.0-8.0"},{"rt":9815.899999986868,"responses":"{\"Enthusiastic\":0,\"Proud\":4,\"Irritable\":3,\"Alert\":0}","question_order":"[0,1,2,3]","trial_type":"survey-likert","trial_index":9,"time_elapsed":176530,"internal_node_id":"0.0-9.0"},{"rt":8325.099999987287,"responses":"{\"Ashamed\":0,\"Inspired\":4,\"Nervous\":4,\"Determined\":3}","question_order":"[0,1,2,3]","trial_type":"survey-likert","trial_index":10,"time_elapsed":184872,"internal_node_id":"0.0-10.0"},{"rt":9637.099999992643,"responses":"{\"Attentive\":4,\"Jittery\":2,\"Active\":0,\"Afraid\":3}","question_order":"[0,1,2,3]","trial_type":"survey-likert","trial_index":11,"time_elapsed":194532,"internal_node_id":"0.0-11.0"},{"rt":21109.800000005635,"responses":"{\"Q0\":1,\"Q1\":1,\"Q2\":0,\"Q3\":2}","question_order":"[0,1,2,3]","trial_type":"survey-likert","trial_index":12,"time_elapsed":215665,"internal_node_id":"0.0-12.0"},{"rt":20497.999999992317,"responses":"{\"Q0\":1,\"Q1\":1,\"Q2\":3,\"Q3\":0}","question_order":"[0,1,2,3]","trial_type":"survey-likert","trial_index":13,"time_elapsed":236178,"internal_node_id":"0.0-13.0"},{"rt":11854.900000005728,"responses":"{\"Q0\":3,\"Q1\":3,\"Q2\":3,\"Q3\":2}","question_order":"[0,1,2,3]","trial_type":"survey-likert","trial_index":14,"time_elapsed":248045,"internal_node_id":"0.0-14.0"},{"rt":11514.100000000326,"responses":"{\"Q0\":1,\"Q1\":2,\"Q2\":2}","question_order":"[0,1,2]","trial_type":"survey-likert","trial_index":15,"time_elapsed":259568,"internal_node_id":"0.0-15.0"},{"view_history":"[{\"page_index\":0,\"viewing_time\":2519.700000004377},{\"page_index\":1,\"viewing_time\":12466.799999994691},{\"page_index\":2,\"viewing_time\":9306.400000001304}]","rt":24293.999999994412,"trial_type":"instructions","trial_index":16,"time_elapsed":283887,"internal_node_id":"0.0-16.0"},{"rt":1478.9999999920838,"stimulus":"<p>Choose a box,</p>","button_pressed":3,"trial_type":"html-button-response","trial_index":17,"time_elapsed":285384,"internal_node_id":"0.0-17.0-0.0"},{"rate":0.18776544038287024,"trial_type":"html-keyboard-response","trial_index":18,"time_elapsed":285388,"internal_node_id":"0.0-17.0-1.0"},{"rt":null,"stimulus":"<div style=\"background-color:#6dce98\"><h1 style=\"background-color:MediumSeaGreen\" >You won a prize! Well done!</h1><div style=\"background-color:#6dce98\"><h1 style=\"background-color:MediumSeaGreen\" >Only 19 left to go!</h1><img id=\"box\" src=\"img/prizes/duck.png\"></img><img id=\"box\" src=\"img/empty/redopenbox.png\"></img></div>","key_press":null,"trial_type":"html-keyboard-response","trial_index":18,"time_elapsed":286899,"internal_node_id":"0.0-17.0-1.0"},{"rt":1417.5999999861233,"stimulus":"<p>Choose a box,</p>","button_pressed":2,"trial_type":"html-button-response","trial_index":19,"time_elapsed":288330,"internal_node_id":"0.0-17.0-0.1"},{"rate":0.29992943658631577,"trial_type":"html-keyboard-response","trial_index":20,"time_elapsed":288332,"internal_node_id":"0.0-17.0-1.1"},{"rt":null,"stimulus":"<div style=\"background-color:#ff7157\"><h1 style=\"background-color:Tomato\">Bad luck! There was no prize in the box!</h1><h1 style=\"background-color:Tomato\">Remember, you need to keep going until you have 20 prizes!</h1><img id=\"box\" src=\"img/sad/purpleopenboxsadthumb.png\"></img></div>","key_press":null,"trial_type":"html-keyboard-response","trial_index":20,"time_elapsed":289837,"internal_node_id":"0.0-17.0-1.1"},{"rt":445.2999999921303,"stimulus":"<p>Choose a box,</p>","button_pressed":3,"trial_type":"html-button-response","trial_index":21,"time_elapsed":290295,"internal_node_id":"0.0-17.0-0.2"},{"rate":0.18776544038287024,"trial_type":"html-keyboard-response","trial_index":22,"time_elapsed":290297,"internal_node_id":"0.0-17.0-1.2"},{"rt":null,"stimulus":"<div style=\"background-color:#6dce98\"><h1 style=\"background-color:MediumSeaGreen\" >You won a prize! Well done!</h1><div style=\"background-color:#6dce98\"><h1 style=\"background-color:MediumSeaGreen\" >Only 18 left to go!</h1><img id=\"box\" src=\"img/prizes/flowers.png\"></img><img id=\"box\" src=\"img/empty/redopenbox.png\"></img></div>","key_press":null,"trial_type":"html-keyboard-response","trial_index":22,"time_elapsed":291804,"internal_node_id":"0.0-17.0-1.2"},{"view_history":"[{\"page_index\":0,\"viewing_time\":5870.3999999852385}]","rt":5873.699999996461,"trial_type":"instructions","trial_index":23,"time_elapsed":297690,"internal_node_id":"0.0-18.0"},{"rt":1612.600000022212,"stimulus":"<p>Choose a box,</p>","button_pressed":3,"trial_type":"html-button-response","trial_index":24,"time_elapsed":299323,"internal_node_id":"0.0-19.0-0.0"},{"rate":0.3785153707375411,"trial_type":"html-keyboard-response","trial_index":25,"time_elapsed":299327,"internal_node_id":"0.0-19.0-1.0"},{"rt":null,"stimulus":"<div style=\"background-color:#6dce98\"><h1 style=\"background-color:MediumSeaGreen\" >You won a prize! Well done!</h1><div style=\"background-color:#6dce98\"><h1 style=\"background-color:MediumSeaGreen\" >Only 19 left to go!</h1><img id=\"box\" src=\"img/prizes/yoyo.png\"></img><img id=\"box\" src=\"img/empty/redopenbox.png\"></img></div>","key_press":null,"trial_type":"html-keyboard-response","trial_index":25,"time_elapsed":300839,"internal_node_id":"0.0-19.0-1.0"},{"rt":344.5999999821652,"stimulus":"<p>Choose a box,</p>","button_pressed":3,"trial_type":"html-button-response","trial_index":26,"time_elapsed":301201,"internal_node_id":"0.0-19.1-0.1"},{"rate":0.3785153707375411,"trial_type":"html-keyboard-response","trial_index":27,"time_elapsed":301203,"internal_node_id":"0.0-19.1-1.1"},{"rt":null,"stimulus":"<div style=\"background-color:#6dce98\"><h1 style=\"background-color:MediumSeaGreen\" >You won a prize! Well done!</h1><div style=\"background-color:#6dce98\"><h1 style=\"background-color:MediumSeaGreen\" >Only 18 left to go!</h1><img id=\"box\" src=\"img/prizes/beachball.png\"></img><img id=\"box\" src=\"img/empty/redopenbox.png\"></img></div>","key_press":null,"trial_type":"html-keyboard-response","trial_index":27,"time_elapsed":302708,"internal_node_id":"0.0-19.1-1.1"},{"rt":1132.2999999974854,"stimulus":"<p>Choose a box,</p>","button_pressed":0,"trial_type":"html-button-response","trial_index":28,"time_elapsed":303854,"internal_node_id":"0.0-19.2-0.2"},{"rate":0.6831027375828513,"trial_type":"html-keyboard-response","trial_index":29,"time_elapsed":303857,"internal_node_id":"0.0-19.2-1.2"},{"rt":null,"stimulus":"<div style=\"background-color:#6dce98\"><h1 style=\"background-color:MediumSeaGreen\" >You won a prize! Well done!</h1><div style=\"background-color:#6dce98\"><h1 style=\"background-color:MediumSeaGreen\" >Only 17 left to go!</h1><img id=\"box\" src=\"img/prizes/choc.png\"></img><img id=\"box\" src=\"img/empty/blueopenbox.png\"></img></div>","key_press":null,"trial_type":"html-keyboard-response","trial_index":29,"time_elapsed":305367,"internal_node_id":"0.0-19.2-1.2"},{"rt":873.1000000261702,"stimulus":"<p>Choose a box,</p>","button_pressed":1,"trial_type":"html-button-response","trial_index":30,"time_elapsed":306260,"internal_node_id":"0.0-19.3-0.3"},{"rate":0.2676542248288175,"trial_type":"html-keyboard-response","trial_index":31,"time_elapsed":306262,"internal_node_id":"0.0-19.3-1.3"},{"rt":null,"stimulus":"<div style=\"background-color:#ff7157\"><h1 style=\"background-color:Tomato\">Bad luck! There was no prize in the box!</h1><h1 style=\"background-color:Tomato\">Remember, you need to keep going until you have 20 prizes!</h1><img id=\"box\" src=\"img/sad/greenopenboxsadthumb.png\"></img></div>","key_press":null,"trial_type":"html-keyboard-response","trial_index":31,"time_elapsed":307771,"internal_node_id":"0.0-19.3-1.3"},{"rt":941.2000000011176,"stimulus":"<p>Choose a box,</p>","button_pressed":2,"trial_type":"html-button-response","trial_index":32,"time_elapsed":308718,"internal_node_id":"0.0-19.4-0.4"},{"rate":0.8356721712241083,"trial_type":"html-keyboard-response","trial_index":33,"time_elapsed":308719,"internal_node_id":"0.0-19.4-1.4"},{"rt":null,"stimulus":"<div style=\"background-color:#ff7157\"><h1 style=\"background-color:Tomato\">Bad luck! There was no prize in the box!</h1><h1 style=\"background-color:Tomato\">Remember, you need to keep going until you have 20 prizes!</h1><img id=\"box\" src=\"img/sad/purpleopenboxsadthumb.png\"></img></div>","key_press":null,"trial_type":"html-keyboard-response","trial_index":33,"time_elapsed":310225,"internal_node_id":"0.0-19.4-1.4"},{"rt":454.200000007404,"stimulus":"<p>Choose a box,</p>","button_pressed":3,"trial_type":"html-button-response","trial_index":34,"time_elapsed":310696,"internal_node_id":"0.0-19.5-0.5"},{"rate":0.3785153707375411,"trial_type":"html-keyboard-response","trial_index":35,"time_elapsed":310697,"internal_node_id":"0.0-19.5-1.5"},{"rt":null,"stimulus":"<div style=\"background-color:#6dce98\"><h1 style=\"background-color:MediumSeaGreen\" >You won a prize! Well done!</h1><div style=\"background-color:#6dce98\"><h1 style=\"background-color:MediumSeaGreen\" >Only 16 left to go!</h1><img id=\"box\" src=\"img/prizes/choc.png\"></img><img id=\"box\" src=\"img/empty/redopenbox.png\"></img></div>","key_press":null,"trial_type":"html-keyboard-response","trial_index":35,"time_elapsed":312205,"internal_node_id":"0.0-19.5-1.5"},{"rt":715.5000000202563,"stimulus":"<p>Choose a box,</p>","button_pressed":3,"trial_type":"html-button-response","trial_index":36,"time_elapsed":312937,"internal_node_id":"0.0-19.6-0.6"},{"rate":0.3785153707375411,"trial_type":"html-keyboard-response","trial_index":37,"time_elapsed":312939,"internal_node_id":"0.0-19.6-1.6"},{"rt":null,"stimulus":"<div style=\"background-color:#6dce98\"><h1 style=\"background-color:MediumSeaGreen\" >You won a prize! Well done!</h1><div style=\"background-color:#6dce98\"><h1 style=\"background-color:MediumSeaGreen\" >Only 15 left to go!</h1><img id=\"box\" src=\"img/prizes/choc.png\"></img><img id=\"box\" src=\"img/empty/redopenbox.png\"></img></div>","key_press":null,"trial_type":"html-keyboard-response","trial_index":37,"time_elapsed":314449,"internal_node_id":"0.0-19.6-1.6"},{"rt":292.90000000037253,"stimulus":"<p>Choose a box,</p>","button_pressed":3,"trial_type":"html-button-response","trial_index":38,"time_elapsed":314754,"internal_node_id":"0.0-19.7-0.7"},{"rate":0.3785153707375411,"trial_type":"html-keyboard-response","trial_index":39,"time_elapsed":314755,"internal_node_id":"0.0-19.7-1.7"},{"rt":null,"stimulus":"<div style=\"background-color:#ff7157\"><h1 style=\"background-color:Tomato\">Bad luck! There was no prize in the box!</h1><h1 style=\"background-color:Tomato\">Remember, you need to keep going until you have 20 prizes!</h1><img id=\"box\" src=\"img/sad/redopenboxsadthumb.png\"></img></div>","key_press":null,"trial_type":"html-keyboard-response","trial_index":39,"time_elapsed":316260,"internal_node_id":"0.0-19.7-1.7"},{"rt":847.700000012992,"stimulus":"<p>Choose a box,</p>","button_pressed":0,"trial_type":"html-button-response","trial_index":40,"time_elapsed":317125,"internal_node_id":"0.0-19.8-0.8"},{"rate":0.6831027375828513,"trial_type":"html-keyboard-response","trial_index":41,"time_elapsed":317127,"internal_node_id":"0.0-19.8-1.8"},{"rt":null,"stimulus":"<div style=\"background-color:#6dce98\"><h1 style=\"background-color:MediumSeaGreen\" >You won a prize! Well done!</h1><div style=\"background-color:#6dce98\"><h1 style=\"background-color:MediumSeaGreen\" >Only 14 left to go!</h1><img id=\"box\" src=\"img/prizes/bear.png\"></img><img id=\"box\" src=\"img/empty/blueopenbox.png\"></img></div>","key_press":null,"trial_type":"html-keyboard-response","trial_index":41,"time_elapsed":318637,"internal_node_id":"0.0-19.8-1.8"},{"rt":42.599999986123294,"stimulus":"<p>Choose a box,</p>","button_pressed":3,"trial_type":"html-button-response","trial_index":42,"time_elapsed":318689,"internal_node_id":"0.0-19.9-0.9"},{"rate":0.3785153707375411,"trial_type":"html-keyboard-response","trial_index":43,"time_elapsed":318690,"internal_node_id":"0.0-19.9-1.9"},{"rt":null,"stimulus":"<div style=\"background-color:#6dce98\"><h1 style=\"background-color:MediumSeaGreen\" >You won a prize! Well done!</h1><div style=\"background-color:#6dce98\"><h1 style=\"background-color:MediumSeaGreen\" >Only 13 left to go!</h1><img id=\"box\" src=\"img/prizes/choc.png\"></img><img id=\"box\" src=\"img/empty/redopenbox.png\"></img></div>","key_press":null,"trial_type":"html-keyboard-response","trial_index":43,"time_elapsed":320197,"internal_node_id":"0.0-19.9-1.9"},{"rt":784.6999999892432,"stimulus":"<p>Choose a box,</p>","button_pressed":2,"trial_type":"html-button-response","trial_index":44,"time_elapsed":320998,"internal_node_id":"0.0-19.10-0.10"},{"rate":0.8356721712241083,"trial_type":"html-keyboard-response","trial_index":45,"time_elapsed":320999,"internal_node_id":"0.0-19.10-1.10"},{"rt":null,"stimulus":"<div style=\"background-color:#6dce98\"><h1 style=\"background-color:MediumSeaGreen\" >You won a prize! Well done!</h1><div style=\"background-color:#6dce98\"><h1 style=\"background-color:MediumSeaGreen\" >Only 12 left to go!</h1><img id=\"box\" src=\"img/prizes/yoyo.png\"></img><img id=\"box\" src=\"img/empty/purpleopenbox.png\"></img></div>","key_press":null,"trial_type":"html-keyboard-response","trial_index":45,"time_elapsed":322507,"internal_node_id":"0.0-19.10-1.10"},{"rt":453.50000000325963,"stimulus":"<p>Choose a box,</p>","button_pressed":1,"trial_type":"html-button-response","trial_index":46,"time_elapsed":322978,"internal_node_id":"0.0-19.11-0.11"},{"rate":0.2676542248288175,"trial_type":"html-keyboard-response","trial_index":47,"time_elapsed":322980,"internal_node_id":"0.0-19.11-1.11"},{"rt":null,"stimulus":"<div style=\"background-color:#6dce98\"><h1 style=\"background-color:MediumSeaGreen\" >You won a prize! Well done!</h1><div style=\"background-color:#6dce98\"><h1 style=\"background-color:MediumSeaGreen\" >Only 11 left to go!</h1><img id=\"box\" src=\"img/prizes/lolipop.png\"></img><img id=\"box\" src=\"img/empty/greenopenbox.png\"></img></div>","key_press":null,"trial_type":"html-keyboard-response","trial_index":47,"time_elapsed":324486,"internal_node_id":"0.0-19.11-1.11"},{"rt":985.000000015134,"stimulus":"<p>Choose a box,</p>","button_pressed":0,"trial_type":"html-button-response","trial_index":48,"time_elapsed":325487,"internal_node_id":"0.0-19.12-0.12"},{"rate":0.6831027375828513,"trial_type":"html-keyboard-response","trial_index":49,"time_elapsed":325490,"internal_node_id":"0.0-19.12-1.12"},{"rt":null,"stimulus":"<div style=\"background-color:#6dce98\"><h1 style=\"background-color:MediumSeaGreen\" >You won a prize! Well done!</h1><div style=\"background-color:#6dce98\"><h1 style=\"background-color:MediumSeaGreen\" >Only 10 left to go!</h1><img id=\"box\" src=\"img/prizes/beachball.png\"></img><img id=\"box\" src=\"img/empty/blueopenbox.png\"></img></div>","key_press":null,"trial_type":"html-keyboard-response","trial_index":49,"time_elapsed":327000,"internal_node_id":"0.0-19.12-1.12"},{"rt":894.2000000097323,"stimulus":"<p>Choose a box,</p>","button_pressed":1,"trial_type":"html-button-response","trial_index":50,"time_elapsed":327904,"internal_node_id":"0.0-19.13-0.13"},{"rate":0.2676542248288175,"trial_type":"html-keyboard-response","trial_index":51,"time_elapsed":327906,"internal_node_id":"0.0-19.13-1.13"},{"rt":null,"stimulus":"<div style=\"background-color:#6dce98\"><h1 style=\"background-color:MediumSeaGreen\" >You won a prize! Well done!</h1><div style=\"background-color:#6dce98\"><h1 style=\"background-color:MediumSeaGreen\" >Only 9 left to go!</h1><img id=\"box\" src=\"img/prizes/duck.png\"></img><img id=\"box\" src=\"img/empty/greenopenbox.png\"></img></div>","key_press":null,"trial_type":"html-keyboard-response","trial_index":51,"time_elapsed":329412,"internal_node_id":"0.0-19.13-1.13"},{"rt":589.1999999876134,"stimulus":"<p>Choose a box,</p>","button_pressed":3,"trial_type":"html-button-response","trial_index":52,"time_elapsed":330010,"internal_node_id":"0.0-19.14-0.14"},{"rate":0.3785153707375411,"trial_type":"html-keyboard-response","trial_index":53,"time_elapsed":330011,"internal_node_id":"0.0-19.14-1.14"},{"rt":null,"stimulus":"<div style=\"background-color:#ff7157\"><h1 style=\"background-color:Tomato\">Bad luck! There was no prize in the box!</h1><h1 style=\"background-color:Tomato\">Remember, you need to keep going until you have 20 prizes!</h1><img id=\"box\" src=\"img/sad/redopenboxsadthumb.png\"></img></div>","key_press":null,"trial_type":"html-keyboard-response","trial_index":53,"time_elapsed":331518,"internal_node_id":"0.0-19.14-1.14"},{"rt":753.2000000064727,"stimulus":"<p>Choose a box,</p>","button_pressed":2,"trial_type":"html-button-response","trial_index":54,"time_elapsed":332282,"internal_node_id":"0.0-19.15-0.15"},{"rate":0.8356721712241083,"trial_type":"html-keyboard-response","trial_index":55,"time_elapsed":332283,"internal_node_id":"0.0-19.15-1.15"},{"rt":null,"stimulus":"<div style=\"background-color:#6dce98\"><h1 style=\"background-color:MediumSeaGreen\" >You won a prize! Well done!</h1><div style=\"background-color:#6dce98\"><h1 style=\"background-color:MediumSeaGreen\" >Only 8 left to go!</h1><img id=\"box\" src=\"img/prizes/yoyo.png\"></img><img id=\"box\" src=\"img/empty/purpleopenbox.png\"></img></div>","key_press":null,"trial_type":"html-keyboard-response","trial_index":55,"time_elapsed":333789,"internal_node_id":"0.0-19.15-1.15"},{"rt":571.300000010524,"stimulus":"<p>Choose a box,</p>","button_pressed":0,"trial_type":"html-button-response","trial_index":56,"time_elapsed":334374,"internal_node_id":"0.0-19.16-0.16"},{"rate":0.6831027375828513,"trial_type":"html-keyboard-response","trial_index":57,"time_elapsed":334377,"internal_node_id":"0.0-19.16-1.16"},{"rt":null,"stimulus":"<div style=\"background-color:#ff7157\"><h1 style=\"background-color:Tomato\">Bad luck! There was no prize in the box!</h1><h1 style=\"background-color:Tomato\">Remember, you need to keep going until you have 20 prizes!</h1><img id=\"box\" src=\"img/sad/blueopenboxsadthumb.png\"></img></div>","key_press":null,"trial_type":"html-keyboard-response","trial_index":57,"time_elapsed":335886,"internal_node_id":"0.0-19.16-1.16"},{"rt":871.5000000083819,"stimulus":"<p>Choose a box,</p>","button_pressed":2,"trial_type":"html-button-response","trial_index":58,"time_elapsed":336775,"internal_node_id":"0.0-19.17-0.17"},{"rate":0.8356721712241083,"trial_type":"html-keyboard-response","trial_index":59,"time_elapsed":336777,"internal_node_id":"0.0-19.17-1.17"},{"rt":null,"stimulus":"<div style=\"background-color:#6dce98\"><h1 style=\"background-color:MediumSeaGreen\" >You won a prize! Well done!</h1><div style=\"background-color:#6dce98\"><h1 style=\"background-color:MediumSeaGreen\" >Only 7 left to go!</h1><img id=\"box\" src=\"img/prizes/duck.png\"></img><img id=\"box\" src=\"img/empty/purpleopenbox.png\"></img></div>","key_press":null,"trial_type":"html-keyboard-response","trial_index":59,"time_elapsed":338286,"internal_node_id":"0.0-19.17-1.17"},{"rt":686.5999999863561,"stimulus":"<p>Choose a box,</p>","button_pressed":2,"trial_type":"html-button-response","trial_index":60,"time_elapsed":338989,"internal_node_id":"0.0-19.18-0.18"},{"rate":0.8356721712241083,"trial_type":"html-keyboard-response","trial_index":61,"time_elapsed":338991,"internal_node_id":"0.0-19.18-1.18"},{"rt":null,"stimulus":"<div style=\"background-color:#6dce98\"><h1 style=\"background-color:MediumSeaGreen\" >You won a prize! Well done!</h1><div style=\"background-color:#6dce98\"><h1 style=\"background-color:MediumSeaGreen\" >Only 6 left to go!</h1><img id=\"box\" src=\"img/prizes/ring.png\"></img><img id=\"box\" src=\"img/empty/purpleopenbox.png\"></img></div>","key_press":null,"trial_type":"html-keyboard-response","trial_index":61,"time_elapsed":340498,"internal_node_id":"0.0-19.18-1.18"},{"rt":665.1000000128988,"stimulus":"<p>Choose a box,</p>","button_pressed":2,"trial_type":"html-button-response","trial_index":62,"time_elapsed":341196,"internal_node_id":"0.0-19.19-0.19"},{"rate":0.8356721712241083,"trial_type":"html-keyboard-response","trial_index":63,"time_elapsed":341197,"internal_node_id":"0.0-19.19-1.19"},{"rt":null,"stimulus":"<div style=\"background-color:#6dce98\"><h1 style=\"background-color:MediumSeaGreen\" >You won a prize! Well done!</h1><div style=\"background-color:#6dce98\"><h1 style=\"background-color:MediumSeaGreen\" >Only 5 left to go!</h1><img id=\"box\" src=\"img/prizes/ring.png\"></img><img id=\"box\" src=\"img/empty/purpleopenbox.png\"></img></div>","key_press":null,"trial_type":"html-keyboard-response","trial_index":63,"time_elapsed":342703,"internal_node_id":"0.0-19.19-1.19"},{"rt":491.2999999942258,"stimulus":"<p>Choose a box,</p>","button_pressed":1,"trial_type":"html-button-response","trial_index":64,"time_elapsed":343210,"internal_node_id":"0.0-19.20-0.20"},{"rate":0.2676542248288175,"trial_type":"html-keyboard-response","trial_index":65,"time_elapsed":343216,"internal_node_id":"0.0-19.20-1.20"},{"rt":null,"stimulus":"<div style=\"background-color:#ff7157\"><h1 style=\"background-color:Tomato\">Bad luck! There was no prize in the box!</h1><h1 style=\"background-color:Tomato\">Remember, you need to keep going until you have 20 prizes!</h1><img id=\"box\" src=\"img/sad/greenopenboxsadthumb.png\"></img></div>","key_press":null,"trial_type":"html-keyboard-response","trial_index":65,"time_elapsed":344724,"internal_node_id":"0.0-19.20-1.20"},{"rt":681.2999999965541,"stimulus":"<p>Choose a box,</p>","button_pressed":3,"trial_type":"html-button-response","trial_index":66,"time_elapsed":345413,"internal_node_id":"0.0-19.21-0.21"},{"rate":0.3785153707375411,"trial_type":"html-keyboard-response","trial_index":67,"time_elapsed":345414,"internal_node_id":"0.0-19.21-1.21"},{"rt":null,"stimulus":"<div style=\"background-color:#6dce98\"><h1 style=\"background-color:MediumSeaGreen\" >You won a prize! Well done!</h1><div style=\"background-color:#6dce98\"><h1 style=\"background-color:MediumSeaGreen\" >Only 4 left to go!</h1><img id=\"box\" src=\"img/prizes/coins.png\"></img><img id=\"box\" src=\"img/empty/redopenbox.png\"></img></div>","key_press":null,"trial_type":"html-keyboard-response","trial_index":67,"time_elapsed":346922,"internal_node_id":"0.0-19.21-1.21"},{"rt":843.4000000124797,"stimulus":"<p>Choose a box,</p>","button_pressed":3,"trial_type":"html-button-response","trial_index":68,"time_elapsed":347780,"internal_node_id":"0.0-19.22-0.22"},{"rate":0.3785153707375411,"trial_type":"html-keyboard-response","trial_index":69,"time_elapsed":347781,"internal_node_id":"0.0-19.22-1.22"},{"rt":null,"stimulus":"<div style=\"background-color:#ff7157\"><h1 style=\"background-color:Tomato\">Bad luck! There was no prize in the box!</h1><h1 style=\"background-color:Tomato\">Remember, you need to keep going until you have 20 prizes!</h1><img id=\"box\" src=\"img/sad/redopenboxsadthumb.png\"></img></div>","key_press":null,"trial_type":"html-keyboard-response","trial_index":69,"time_elapsed":349290,"internal_node_id":"0.0-19.22-1.22"},{"rt":709.0000000025611,"stimulus":"<p>Choose a box,</p>","button_pressed":0,"trial_type":"html-button-response","trial_index":70,"time_elapsed":350014,"internal_node_id":"0.0-19.23-0.23"},{"rate":0.6831027375828513,"trial_type":"html-keyboard-response","trial_index":71,"time_elapsed":350015,"internal_node_id":"0.0-19.23-1.23"},{"rt":null,"stimulus":"<div style=\"background-color:#ff7157\"><h1 style=\"background-color:Tomato\">Bad luck! There was no prize in the box!</h1><h1 style=\"background-color:Tomato\">Remember, you need to keep going until you have 20 prizes!</h1><img id=\"box\" src=\"img/sad/blueopenboxsadthumb.png\"></img></div>","key_press":null,"trial_type":"html-keyboard-response","trial_index":71,"time_elapsed":351520,"internal_node_id":"0.0-19.23-1.23"},{"rt":99.60000001592562,"stimulus":"<p>Choose a box,</p>","button_pressed":2,"trial_type":"html-button-response","trial_index":72,"time_elapsed":351633,"internal_node_id":"0.0-19.24-0.24"},{"rate":0.8356721712241083,"trial_type":"html-keyboard-response","trial_index":73,"time_elapsed":351634,"internal_node_id":"0.0-19.24-1.24"},{"rt":null,"stimulus":"<div style=\"background-color:#6dce98\"><h1 style=\"background-color:MediumSeaGreen\" >You won a prize! Well done!</h1><div style=\"background-color:#6dce98\"><h1 style=\"background-color:MediumSeaGreen\" >Only 3 left to go!</h1><img id=\"box\" src=\"img/prizes/flowers.png\"></img><img id=\"box\" src=\"img/empty/purpleopenbox.png\"></img></div>","key_press":null,"trial_type":"html-keyboard-response","trial_index":73,"time_elapsed":353140,"internal_node_id":"0.0-19.24-1.24"},{"rt":199.4999999878928,"stimulus":"<p>Choose a box,</p>","button_pressed":2,"trial_type":"html-button-response","trial_index":74,"time_elapsed":353355,"internal_node_id":"0.0-19.25-0.25"},{"rate":0.8356721712241083,"trial_type":"html-keyboard-response","trial_index":75,"time_elapsed":353357,"internal_node_id":"0.0-19.25-1.25"},{"rt":null,"stimulus":"<div style=\"background-color:#6dce98\"><h1 style=\"background-color:MediumSeaGreen\" >You won a prize! Well done!</h1><div style=\"background-color:#6dce98\"><h1 style=\"background-color:MediumSeaGreen\" >Only 2 left to go!</h1><img id=\"box\" src=\"img/prizes/choc.png\"></img><img id=\"box\" src=\"img/empty/purpleopenbox.png\"></img></div>","key_press":null,"trial_type":"html-keyboard-response","trial_index":75,"time_elapsed":354868,"internal_node_id":"0.0-19.25-1.25"},{"rt":599.900000001071,"stimulus":"<p>Choose a box,</p>","button_pressed":2,"trial_type":"html-button-response","trial_index":76,"time_elapsed":355486,"internal_node_id":"0.0-19.26-0.26"},{"rate":0.8356721712241083,"trial_type":"html-keyboard-response","trial_index":77,"time_elapsed":355487,"internal_node_id":"0.0-19.26-1.26"},{"rt":null,"stimulus":"<div style=\"background-color:#6dce98\"><h1 style=\"background-color:MediumSeaGreen\" >You won a prize! Well done!</h1><div style=\"background-color:#6dce98\"><h1 style=\"background-color:MediumSeaGreen\" >Only 1 left to go!</h1><img id=\"box\" src=\"img/prizes/ring.png\"></img><img id=\"box\" src=\"img/empty/purpleopenbox.png\"></img></div>","key_press":null,"trial_type":"html-keyboard-response","trial_index":77,"time_elapsed":357001,"internal_node_id":"0.0-19.26-1.26"},{"rt":751.2999999744352,"stimulus":"<p>Choose a box,</p>","button_pressed":2,"trial_type":"html-button-response","trial_index":78,"time_elapsed":357770,"internal_node_id":"0.0-19.27-0.27"},{"rate":0.8356721712241083,"trial_type":"html-keyboard-response","trial_index":79,"time_elapsed":357772,"internal_node_id":"0.0-19.27-1.27"},{"rt":null,"stimulus":"<div style=\"background-color:#ff7157\"><h1 style=\"background-color:Tomato\">Bad luck! There was no prize in the box!</h1><h1 style=\"background-color:Tomato\">Remember, you need to keep going until you have 20 prizes!</h1><img id=\"box\" src=\"img/sad/purpleopenboxsadthumb.png\"></img></div>","key_press":null,"trial_type":"html-keyboard-response","trial_index":79,"time_elapsed":359280,"internal_node_id":"0.0-19.27-1.27"},{"rt":1148.4999999811407,"stimulus":"<p>Choose a box,</p>","button_pressed":1,"trial_type":"html-button-response","trial_index":80,"time_elapsed":360446,"internal_node_id":"0.0-19.28-0.28"},{"rate":0.2676542248288175,"trial_type":"html-keyboard-response","trial_index":81,"time_elapsed":360447,"internal_node_id":"0.0-19.28-1.28"},{"rt":null,"stimulus":"<div style=\"background-color:#ff7157\"><h1 style=\"background-color:Tomato\">Bad luck! There was no prize in the box!</h1><h1 style=\"background-color:Tomato\">Remember, you need to keep going until you have 20 prizes!</h1><img id=\"box\" src=\"img/sad/greenopenboxsadthumb.png\"></img></div>","key_press":null,"trial_type":"html-keyboard-response","trial_index":81,"time_elapsed":361957,"internal_node_id":"0.0-19.28-1.28"},{"rt":461.6999999852851,"stimulus":"<p>Choose a box,</p>","button_pressed":3,"trial_type":"html-button-response","trial_index":82,"time_elapsed":362435,"internal_node_id":"0.0-19.29-0.29"},{"rate":0.3785153707375411,"trial_type":"html-keyboard-response","trial_index":83,"time_elapsed":362436,"internal_node_id":"0.0-19.29-1.29"},{"rt":null,"stimulus":"<div style=\"background-color:#ff7157\"><h1 style=\"background-color:Tomato\">Bad luck! There was no prize in the box!</h1><h1 style=\"background-color:Tomato\">Remember, you need to keep going until you have 20 prizes!</h1><img id=\"box\" src=\"img/sad/redopenboxsadthumb.png\"></img></div>","key_press":null,"trial_type":"html-keyboard-response","trial_index":83,"time_elapsed":363944,"internal_node_id":"0.0-19.29-1.29"},{"rt":724.6999999915715,"stimulus":"<p>Choose a box,</p>","button_pressed":3,"trial_type":"html-button-response","trial_index":84,"time_elapsed":364685,"internal_node_id":"0.0-19.30-0.30"},{"rate":0.3785153707375411,"trial_type":"html-keyboard-response","trial_index":85,"time_elapsed":364687,"internal_node_id":"0.0-19.30-1.30"},{"rt":null,"stimulus":"<div style=\"background-color:#ff7157\"><h1 style=\"background-color:Tomato\">Bad luck! There was no prize in the box!</h1><h1 style=\"background-color:Tomato\">Remember, you need to keep going until you have 20 prizes!</h1><img id=\"box\" src=\"img/sad/redopenboxsadthumb.png\"></img></div>","key_press":null,"trial_type":"html-keyboard-response","trial_index":85,"time_elapsed":366197,"internal_node_id":"0.0-19.30-1.30"},{"rt":811.9000000006054,"stimulus":"<p>Choose a box,</p>","button_pressed":0,"trial_type":"html-button-response","trial_index":86,"time_elapsed":367025,"internal_node_id":"0.0-19.31-0.31"},{"rate":0.6831027375828513,"trial_type":"html-keyboard-response","trial_index":87,"time_elapsed":367027,"internal_node_id":"0.0-19.31-1.31"},{"rt":null,"stimulus":"<div style=\"background-color:#6dce98\"><h1 style=\"background-color:MediumSeaGreen\" >You won a prize! Well done!</h1><div style=\"background-color:#6dce98\"><h1 style=\"background-color:MediumSeaGreen\" >Only 0 left to go!</h1><img id=\"box\" src=\"img/prizes/coins.png\"></img><img id=\"box\" src=\"img/empty/blueopenbox.png\"></img></div>","key_press":null,"trial_type":"html-keyboard-response","trial_index":87,"time_elapsed":368536,"internal_node_id":"0.0-19.31-1.31"},{"rt":42776.29999999772,"responses":"{\"Q0\":\"It is quite interesting \",\"Q1\":\"I have been choosing boxes all the time\"}","trial_type":"survey-text","trial_index":88,"time_elapsed":411348,"internal_node_id":"0.0-20.0"}]