[{"view_history":"[{\"page_index\":0,\"viewing_time\":26865},{\"page_index\":1,\"viewing_time\":9055},{\"page_index\":2,\"viewing_time\":16249},{\"page_index\":3,\"viewing_time\":54207},{\"page_index\":4,\"viewing_time\":3401.0000000000146},{\"page_index\":5,\"viewing_time\":3655}]","rt":113433,"trial_type":"instructions","trial_index":0,"time_elapsed":113437,"internal_node_id":"0.0-0.0"},{"rt":7376.000000000015,"responses":"{\"Q0\":\"Yes\",\"Q1\":\"Yes\",\"Q2\":\"Yes\"}","question_order":"[0,1,2]","trial_type":"survey-multi-choice","trial_index":1,"time_elapsed":120816,"internal_node_id":"0.0-1.0-0.0"},{"rt":17071.00000000003,"responses":"{\"Q0\":\"Yes\",\"Q1\":\"Yes\",\"Q2\":\"Yes\"}","question_order":"[0,1,2]","trial_type":"survey-multi-choice","trial_index":2,"time_elapsed":137890,"internal_node_id":"0.0-2.0-0.0"},{"rt":6656,"responses":"{\"Q0\":\"5fc683c3321c3301da5ee525\"}","trial_type":"survey-text","trial_index":3,"time_elapsed":144554,"internal_node_id":"0.0-3.0"},{"rt":7267,"responses":"{\"Q0\":\"Male\",\"Q1\":\"18-25\"}","question_order":"[0,1]","trial_type":"survey-multi-choice","trial_index":4,"time_elapsed":151822,"internal_node_id":"0.0-4.0"},{"rt":4901,"responses":"{\"Q0\":\"no\"}","trial_type":"survey-text","trial_index":5,"time_elapsed":156734,"internal_node_id":"0.0-5.0"},{"view_history":"[{\"page_index\":0,\"viewing_time\":3411}]","rt":3411.999999999971,"trial_type":"instructions","trial_index":6,"time_elapsed":160146,"internal_node_id":"0.0-6.0"},{"rt":22327,"responses":"{\"Interested\":1,\"Distressed\":3,\"Excited\":1,\"Upset\":2}","question_order":"[0,1,2,3]","trial_type":"survey-likert","trial_index":7,"time_elapsed":182477,"internal_node_id":"0.0-7.0"},{"rt":12787.99999999997,"responses":"{\"Strong\":2,\"Guilty\":0,\"Scared\":2,\"Hostile\":0}","question_order":"[0,1,2,3]","trial_type":"survey-likert","trial_index":8,"time_elapsed":195267,"internal_node_id":"0.0-8.0"},{"rt":8544.00000000003,"responses":"{\"Enthusiastic\":1,\"Proud\":0,\"Irritable\":1,\"Alert\":3}","question_order":"[0,1,2,3]","trial_type":"survey-likert","trial_index":9,"time_elapsed":203813,"internal_node_id":"0.0-9.0"},{"rt":11846,"responses":"{\"Ashamed\":0,\"Inspired\":0,\"Nervous\":3,\"Determined\":1}","question_order":"[0,1,2,3]","trial_type":"survey-likert","trial_index":10,"time_elapsed":215662,"internal_node_id":"0.0-10.0"},{"rt":12533.99999999997,"responses":"{\"Attentive\":3,\"Jittery\":1,\"Active\":1,\"Afraid\":2}","question_order":"[0,1,2,3]","trial_type":"survey-likert","trial_index":11,"time_elapsed":228199,"internal_node_id":"0.0-11.0"},{"rt":29000,"responses":"{\"Q0\":1,\"Q1\":2,\"Q2\":3,\"Q3\":3}","question_order":"[0,1,2,3]","trial_type":"survey-likert","trial_index":12,"time_elapsed":257201,"internal_node_id":"0.0-12.0"},{"rt":30765.99999999997,"responses":"{\"Q0\":3,\"Q1\":0,\"Q2\":2,\"Q3\":1}","question_order":"[0,1,2,3]","trial_type":"survey-likert","trial_index":13,"time_elapsed":287969,"internal_node_id":"0.0-13.0"},{"rt":13846,"responses":"{\"Q0\":2,\"Q1\":3,\"Q2\":3,\"Q3\":2}","question_order":"[0,1,2,3]","trial_type":"survey-likert","trial_index":14,"time_elapsed":301817,"internal_node_id":"0.0-14.0"},{"rt":16934,"responses":"{\"Q0\":1,\"Q1\":1,\"Q2\":3}","question_order":"[0,1,2]","trial_type":"survey-likert","trial_index":15,"time_elapsed":318753,"internal_node_id":"0.0-15.0"},{"view_history":"[{\"page_index\":0,\"viewing_time\":2621.000000000058},{\"page_index\":1,\"viewing_time\":7058.999999999942},{\"page_index\":2,\"viewing_time\":5887}]","rt":15568.000000000058,"trial_type":"instructions","trial_index":16,"time_elapsed":334323,"internal_node_id":"0.0-16.0"},{"rt":1600.0000000000582,"stimulus":"<p>Choose a box,</p>","button_pressed":2,"trial_type":"html-button-response","trial_index":17,"time_elapsed":335925,"internal_node_id":"0.0-17.0-0.0"},{"rate":0.305221500201464,"trial_type":"html-keyboard-response","trial_index":18,"time_elapsed":335926,"internal_node_id":"0.0-17.0-1.0"},{"rt":null,"stimulus":"<div style=\"background-color:#ff7157\"><h1 style=\"background-color:Tomato\">Bad luck! There was no prize in the box!</h1><h1 style=\"background-color:Tomato\">Remember, you need to keep going until you have 20 prizes!</h1><img id=\"box\" src=\"img/sad/purpleopenboxsadthumb.png\"></img></div>","key_press":null,"trial_type":"html-keyboard-response","trial_index":18,"time_elapsed":337429,"internal_node_id":"0.0-17.0-1.0"},{"rt":1848,"stimulus":"<p>Choose a box,</p>","button_pressed":0,"trial_type":"html-button-response","trial_index":19,"time_elapsed":339280,"internal_node_id":"0.0-17.0-0.1"},{"rate":0.6385102414881421,"trial_type":"html-keyboard-response","trial_index":20,"time_elapsed":339280,"internal_node_id":"0.0-17.0-1.1"},{"rt":null,"stimulus":"<div style=\"background-color:#6dce98\"><h1 style=\"background-color:MediumSeaGreen\" >You won a prize! Well done!</h1><div style=\"background-color:#6dce98\"><h1 style=\"background-color:MediumSeaGreen\" >Only 19 left to go!</h1><img id=\"box\" src=\"img/prizes/choc.png\"></img><img id=\"box\" src=\"img/empty/blueopenbox.png\"></img></div>","key_press":null,"trial_type":"html-keyboard-response","trial_index":20,"time_elapsed":340783,"internal_node_id":"0.0-17.0-1.1"},{"rt":1377.0000000000582,"stimulus":"<p>Choose a box,</p>","button_pressed":3,"trial_type":"html-button-response","trial_index":21,"time_elapsed":342162,"internal_node_id":"0.0-17.0-0.2"},{"rate":0.03439737204361818,"trial_type":"html-keyboard-response","trial_index":22,"time_elapsed":342162,"internal_node_id":"0.0-17.0-1.2"},{"rt":null,"stimulus":"<div style=\"background-color:#ff7157\"><h1 style=\"background-color:Tomato\">Bad luck! There was no prize in the box!</h1><h1 style=\"background-color:Tomato\">Remember, you need to keep going until you have 20 prizes!</h1><img id=\"box\" src=\"img/sad/redopenboxsadthumb.png\"></img></div>","key_press":null,"trial_type":"html-keyboard-response","trial_index":22,"time_elapsed":343665,"internal_node_id":"0.0-17.0-1.2"},{"view_history":"[{\"page_index\":0,\"viewing_time\":5181.000000000058}]","rt":5181.000000000058,"trial_type":"instructions","trial_index":23,"time_elapsed":348847,"internal_node_id":"0.0-18.0"},{"rt":1036,"stimulus":"<p>Choose a box,</p>","button_pressed":2,"trial_type":"html-button-response","trial_index":24,"time_elapsed":349884,"internal_node_id":"0.0-19.0-0.0"},{"rate":0.7601678272592476,"trial_type":"html-keyboard-response","trial_index":25,"time_elapsed":349885,"internal_node_id":"0.0-19.0-1.0"},{"rt":null,"stimulus":"<div style=\"background-color:#6dce98\"><h1 style=\"background-color:MediumSeaGreen\" >You won a prize! Well done!</h1><div style=\"background-color:#6dce98\"><h1 style=\"background-color:MediumSeaGreen\" >Only 19 left to go!</h1><img id=\"box\" src=\"img/prizes/lolipop.png\"></img><img id=\"box\" src=\"img/empty/purpleopenbox.png\"></img></div>","key_press":null,"trial_type":"html-keyboard-response","trial_index":25,"time_elapsed":351387,"internal_node_id":"0.0-19.0-1.0"},{"rt":1090.9999999999418,"stimulus":"<p>Choose a box,</p>","button_pressed":1,"trial_type":"html-button-response","trial_index":26,"time_elapsed":352480,"internal_node_id":"0.0-19.1-0.1"},{"rate":0.14248059136290162,"trial_type":"html-keyboard-response","trial_index":27,"time_elapsed":352480,"internal_node_id":"0.0-19.1-1.1"},{"rt":null,"stimulus":"<div style=\"background-color:#ff7157\"><h1 style=\"background-color:Tomato\">Bad luck! There was no prize in the box!</h1><h1 style=\"background-color:Tomato\">Remember, you need to keep going until you have 20 prizes!</h1><img id=\"box\" src=\"img/sad/greenopenboxsadthumb.png\"></img></div>","key_press":null,"trial_type":"html-keyboard-response","trial_index":27,"time_elapsed":353982,"internal_node_id":"0.0-19.1-1.1"},{"rt":1385,"stimulus":"<p>Choose a box,</p>","button_pressed":0,"trial_type":"html-button-response","trial_index":28,"time_elapsed":355369,"internal_node_id":"0.0-19.2-0.2"},{"rate":0.5942617298908413,"trial_type":"html-keyboard-response","trial_index":29,"time_elapsed":355369,"internal_node_id":"0.0-19.2-1.2"},{"rt":null,"stimulus":"<div style=\"background-color:#6dce98\"><h1 style=\"background-color:MediumSeaGreen\" >You won a prize! Well done!</h1><div style=\"background-color:#6dce98\"><h1 style=\"background-color:MediumSeaGreen\" >Only 18 left to go!</h1><img id=\"box\" src=\"img/prizes/duck.png\"></img><img id=\"box\" src=\"img/empty/blueopenbox.png\"></img></div>","key_press":null,"trial_type":"html-keyboard-response","trial_index":29,"time_elapsed":356872,"internal_node_id":"0.0-19.2-1.2"},{"rt":1419,"stimulus":"<p>Choose a box,</p>","button_pressed":2,"trial_type":"html-button-response","trial_index":30,"time_elapsed":358292,"internal_node_id":"0.0-19.3-0.3"},{"rate":0.7601678272592476,"trial_type":"html-keyboard-response","trial_index":31,"time_elapsed":358293,"internal_node_id":"0.0-19.3-1.3"},{"rt":null,"stimulus":"<div style=\"background-color:#ff7157\"><h1 style=\"background-color:Tomato\">Bad luck! There was no prize in the box!</h1><h1 style=\"background-color:Tomato\">Remember, you need to keep going until you have 20 prizes!</h1><img id=\"box\" src=\"img/sad/purpleopenboxsadthumb.png\"></img></div>","key_press":null,"trial_type":"html-keyboard-response","trial_index":31,"time_elapsed":359795,"internal_node_id":"0.0-19.3-1.3"},{"rt":1266,"stimulus":"<p>Choose a box,</p>","button_pressed":1,"trial_type":"html-button-response","trial_index":32,"time_elapsed":361063,"internal_node_id":"0.0-19.4-0.4"},{"rate":0.14248059136290162,"trial_type":"html-keyboard-response","trial_index":33,"time_elapsed":361063,"internal_node_id":"0.0-19.4-1.4"},{"rt":null,"stimulus":"<div style=\"background-color:#ff7157\"><h1 style=\"background-color:Tomato\">Bad luck! There was no prize in the box!</h1><h1 style=\"background-color:Tomato\">Remember, you need to keep going until you have 20 prizes!</h1><img id=\"box\" src=\"img/sad/greenopenboxsadthumb.png\"></img></div>","key_press":null,"trial_type":"html-keyboard-response","trial_index":33,"time_elapsed":362565,"internal_node_id":"0.0-19.4-1.4"},{"rt":821,"stimulus":"<p>Choose a box,</p>","button_pressed":3,"trial_type":"html-button-response","trial_index":34,"time_elapsed":363388,"internal_node_id":"0.0-19.5-0.5"},{"rate":0.24849534737740367,"trial_type":"html-keyboard-response","trial_index":35,"time_elapsed":363388,"internal_node_id":"0.0-19.5-1.5"},{"rt":null,"stimulus":"<div style=\"background-color:#ff7157\"><h1 style=\"background-color:Tomato\">Bad luck! There was no prize in the box!</h1><h1 style=\"background-color:Tomato\">Remember, you need to keep going until you have 20 prizes!</h1><img id=\"box\" src=\"img/sad/redopenboxsadthumb.png\"></img></div>","key_press":null,"trial_type":"html-keyboard-response","trial_index":35,"time_elapsed":364890,"internal_node_id":"0.0-19.5-1.5"},{"rt":694.0000000000582,"stimulus":"<p>Choose a box,</p>","button_pressed":3,"trial_type":"html-button-response","trial_index":36,"time_elapsed":365586,"internal_node_id":"0.0-19.6-0.6"},{"rate":0.24849534737740367,"trial_type":"html-keyboard-response","trial_index":37,"time_elapsed":365586,"internal_node_id":"0.0-19.6-1.6"},{"rt":null,"stimulus":"<div style=\"background-color:#6dce98\"><h1 style=\"background-color:MediumSeaGreen\" >You won a prize! Well done!</h1><div style=\"background-color:#6dce98\"><h1 style=\"background-color:MediumSeaGreen\" >Only 17 left to go!</h1><img id=\"box\" src=\"img/prizes/choc.png\"></img><img id=\"box\" src=\"img/empty/redopenbox.png\"></img></div>","key_press":null,"trial_type":"html-keyboard-response","trial_index":37,"time_elapsed":367089,"internal_node_id":"0.0-19.6-1.6"},{"rt":567.0000000000582,"stimulus":"<p>Choose a box,</p>","button_pressed":2,"trial_type":"html-button-response","trial_index":38,"time_elapsed":367658,"internal_node_id":"0.0-19.7-0.7"},{"rate":0.7601678272592476,"trial_type":"html-keyboard-response","trial_index":39,"time_elapsed":367658,"internal_node_id":"0.0-19.7-1.7"},{"rt":null,"stimulus":"<div style=\"background-color:#ff7157\"><h1 style=\"background-color:Tomato\">Bad luck! There was no prize in the box!</h1><h1 style=\"background-color:Tomato\">Remember, you need to keep going until you have 20 prizes!</h1><img id=\"box\" src=\"img/sad/purpleopenboxsadthumb.png\"></img></div>","key_press":null,"trial_type":"html-keyboard-response","trial_index":39,"time_elapsed":369160,"internal_node_id":"0.0-19.7-1.7"},{"rt":605,"stimulus":"<p>Choose a box,</p>","button_pressed":2,"trial_type":"html-button-response","trial_index":40,"time_elapsed":369766,"internal_node_id":"0.0-19.8-0.8"},{"rate":0.7601678272592476,"trial_type":"html-keyboard-response","trial_index":41,"time_elapsed":369767,"internal_node_id":"0.0-19.8-1.8"},{"rt":null,"stimulus":"<div style=\"background-color:#6dce98\"><h1 style=\"background-color:MediumSeaGreen\" >You won a prize! Well done!</h1><div style=\"background-color:#6dce98\"><h1 style=\"background-color:MediumSeaGreen\" >Only 16 left to go!</h1><img id=\"box\" src=\"img/prizes/yoyo.png\"></img><img id=\"box\" src=\"img/empty/purpleopenbox.png\"></img></div>","key_press":null,"trial_type":"html-keyboard-response","trial_index":41,"time_elapsed":371269,"internal_node_id":"0.0-19.8-1.8"},{"rt":541.9999999999418,"stimulus":"<p>Choose a box,</p>","button_pressed":2,"trial_type":"html-button-response","trial_index":42,"time_elapsed":371812,"internal_node_id":"0.0-19.9-0.9"},{"rate":0.7601678272592476,"trial_type":"html-keyboard-response","trial_index":43,"time_elapsed":371813,"internal_node_id":"0.0-19.9-1.9"},{"rt":null,"stimulus":"<div style=\"background-color:#6dce98\"><h1 style=\"background-color:MediumSeaGreen\" >You won a prize! Well done!</h1><div style=\"background-color:#6dce98\"><h1 style=\"background-color:MediumSeaGreen\" >Only 15 left to go!</h1><img id=\"box\" src=\"img/prizes/duck.png\"></img><img id=\"box\" src=\"img/empty/purpleopenbox.png\"></img></div>","key_press":null,"trial_type":"html-keyboard-response","trial_index":43,"time_elapsed":373314,"internal_node_id":"0.0-19.9-1.9"},{"rt":669.0000000000582,"stimulus":"<p>Choose a box,</p>","button_pressed":0,"trial_type":"html-button-response","trial_index":44,"time_elapsed":373985,"internal_node_id":"0.0-19.10-0.10"},{"rate":0.5942617298908413,"trial_type":"html-keyboard-response","trial_index":45,"time_elapsed":373986,"internal_node_id":"0.0-19.10-1.10"},{"rt":null,"stimulus":"<div style=\"background-color:#6dce98\"><h1 style=\"background-color:MediumSeaGreen\" >You won a prize! Well done!</h1><div style=\"background-color:#6dce98\"><h1 style=\"background-color:MediumSeaGreen\" >Only 14 left to go!</h1><img id=\"box\" src=\"img/prizes/lolipop.png\"></img><img id=\"box\" src=\"img/empty/blueopenbox.png\"></img></div>","key_press":null,"trial_type":"html-keyboard-response","trial_index":45,"time_elapsed":375488,"internal_node_id":"0.0-19.10-1.10"},{"rt":508.9999999999418,"stimulus":"<p>Choose a box,</p>","button_pressed":0,"trial_type":"html-button-response","trial_index":46,"time_elapsed":375999,"internal_node_id":"0.0-19.11-0.11"},{"rate":0.5942617298908413,"trial_type":"html-keyboard-response","trial_index":47,"time_elapsed":376000,"internal_node_id":"0.0-19.11-1.11"},{"rt":null,"stimulus":"<div style=\"background-color:#6dce98\"><h1 style=\"background-color:MediumSeaGreen\" >You won a prize! Well done!</h1><div style=\"background-color:#6dce98\"><h1 style=\"background-color:MediumSeaGreen\" >Only 13 left to go!</h1><img id=\"box\" src=\"img/prizes/yoyo.png\"></img><img id=\"box\" src=\"img/empty/blueopenbox.png\"></img></div>","key_press":null,"trial_type":"html-keyboard-response","trial_index":47,"time_elapsed":377501,"internal_node_id":"0.0-19.11-1.11"},{"rt":604,"stimulus":"<p>Choose a box,</p>","button_pressed":2,"trial_type":"html-button-response","trial_index":48,"time_elapsed":378106,"internal_node_id":"0.0-19.12-0.12"},{"rate":0.7601678272592476,"trial_type":"html-keyboard-response","trial_index":49,"time_elapsed":378107,"internal_node_id":"0.0-19.12-1.12"},{"rt":null,"stimulus":"<div style=\"background-color:#6dce98\"><h1 style=\"background-color:MediumSeaGreen\" >You won a prize! Well done!</h1><div style=\"background-color:#6dce98\"><h1 style=\"background-color:MediumSeaGreen\" >Only 12 left to go!</h1><img id=\"box\" src=\"img/prizes/lolipop.png\"></img><img id=\"box\" src=\"img/empty/purpleopenbox.png\"></img></div>","key_press":null,"trial_type":"html-keyboard-response","trial_index":49,"time_elapsed":379608,"internal_node_id":"0.0-19.12-1.12"},{"rt":449.9999999999418,"stimulus":"<p>Choose a box,</p>","button_pressed":2,"trial_type":"html-button-response","trial_index":50,"time_elapsed":380059,"internal_node_id":"0.0-19.13-0.13"},{"rate":0.7601678272592476,"trial_type":"html-keyboard-response","trial_index":51,"time_elapsed":380059,"internal_node_id":"0.0-19.13-1.13"},{"rt":null,"stimulus":"<div style=\"background-color:#6dce98\"><h1 style=\"background-color:MediumSeaGreen\" >You won a prize! Well done!</h1><div style=\"background-color:#6dce98\"><h1 style=\"background-color:MediumSeaGreen\" >Only 11 left to go!</h1><img id=\"box\" src=\"img/prizes/coins.png\"></img><img id=\"box\" src=\"img/empty/purpleopenbox.png\"></img></div>","key_press":null,"trial_type":"html-keyboard-response","trial_index":51,"time_elapsed":381560,"internal_node_id":"0.0-19.13-1.13"},{"rt":643,"stimulus":"<p>Choose a box,</p>","button_pressed":2,"trial_type":"html-button-response","trial_index":52,"time_elapsed":382204,"internal_node_id":"0.0-19.14-0.14"},{"rate":0.7601678272592476,"trial_type":"html-keyboard-response","trial_index":53,"time_elapsed":382204,"internal_node_id":"0.0-19.14-1.14"},{"rt":null,"stimulus":"<div style=\"background-color:#6dce98\"><h1 style=\"background-color:MediumSeaGreen\" >You won a prize! Well done!</h1><div style=\"background-color:#6dce98\"><h1 style=\"background-color:MediumSeaGreen\" >Only 10 left to go!</h1><img id=\"box\" src=\"img/prizes/yoyo.png\"></img><img id=\"box\" src=\"img/empty/purpleopenbox.png\"></img></div>","key_press":null,"trial_type":"html-keyboard-response","trial_index":53,"time_elapsed":383706,"internal_node_id":"0.0-19.14-1.14"},{"rt":479,"stimulus":"<p>Choose a box,</p>","button_pressed":0,"trial_type":"html-button-response","trial_index":54,"time_elapsed":384185,"internal_node_id":"0.0-19.15-0.15"},{"rate":0.5942617298908413,"trial_type":"html-keyboard-response","trial_index":55,"time_elapsed":384185,"internal_node_id":"0.0-19.15-1.15"},{"rt":null,"stimulus":"<div style=\"background-color:#ff7157\"><h1 style=\"background-color:Tomato\">Bad luck! There was no prize in the box!</h1><h1 style=\"background-color:Tomato\">Remember, you need to keep going until you have 20 prizes!</h1><img id=\"box\" src=\"img/sad/blueopenboxsadthumb.png\"></img></div>","key_press":null,"trial_type":"html-keyboard-response","trial_index":55,"time_elapsed":385688,"internal_node_id":"0.0-19.15-1.15"},{"rt":469.0000000000582,"stimulus":"<p>Choose a box,</p>","button_pressed":2,"trial_type":"html-button-response","trial_index":56,"time_elapsed":386158,"internal_node_id":"0.0-19.16-0.16"},{"rate":0.7601678272592476,"trial_type":"html-keyboard-response","trial_index":57,"time_elapsed":386158,"internal_node_id":"0.0-19.16-1.16"},{"rt":null,"stimulus":"<div style=\"background-color:#6dce98\"><h1 style=\"background-color:MediumSeaGreen\" >You won a prize! Well done!</h1><div style=\"background-color:#6dce98\"><h1 style=\"background-color:MediumSeaGreen\" >Only 9 left to go!</h1><img id=\"box\" src=\"img/prizes/bear.png\"></img><img id=\"box\" src=\"img/empty/purpleopenbox.png\"></img></div>","key_press":null,"trial_type":"html-keyboard-response","trial_index":57,"time_elapsed":387660,"internal_node_id":"0.0-19.16-1.16"},{"rt":462,"stimulus":"<p>Choose a box,</p>","button_pressed":2,"trial_type":"html-button-response","trial_index":58,"time_elapsed":388124,"internal_node_id":"0.0-19.17-0.17"},{"rate":0.7601678272592476,"trial_type":"html-keyboard-response","trial_index":59,"time_elapsed":388124,"internal_node_id":"0.0-19.17-1.17"},{"rt":null,"stimulus":"<div style=\"background-color:#6dce98\"><h1 style=\"background-color:MediumSeaGreen\" >You won a prize! Well done!</h1><div style=\"background-color:#6dce98\"><h1 style=\"background-color:MediumSeaGreen\" >Only 8 left to go!</h1><img id=\"box\" src=\"img/prizes/duck.png\"></img><img id=\"box\" src=\"img/empty/purpleopenbox.png\"></img></div>","key_press":null,"trial_type":"html-keyboard-response","trial_index":59,"time_elapsed":389626,"internal_node_id":"0.0-19.17-1.17"},{"rt":427.9999999999418,"stimulus":"<p>Choose a box,</p>","button_pressed":2,"trial_type":"html-button-response","trial_index":60,"time_elapsed":390055,"internal_node_id":"0.0-19.18-0.18"},{"rate":0.7601678272592476,"trial_type":"html-keyboard-response","trial_index":61,"time_elapsed":390055,"internal_node_id":"0.0-19.18-1.18"},{"rt":null,"stimulus":"<div style=\"background-color:#6dce98\"><h1 style=\"background-color:MediumSeaGreen\" >You won a prize! Well done!</h1><div style=\"background-color:#6dce98\"><h1 style=\"background-color:MediumSeaGreen\" >Only 7 left to go!</h1><img id=\"box\" src=\"img/prizes/duck.png\"></img><img id=\"box\" src=\"img/empty/purpleopenbox.png\"></img></div>","key_press":null,"trial_type":"html-keyboard-response","trial_index":61,"time_elapsed":391558,"internal_node_id":"0.0-19.18-1.18"},{"rt":459,"stimulus":"<p>Choose a box,</p>","button_pressed":2,"trial_type":"html-button-response","trial_index":62,"time_elapsed":392018,"internal_node_id":"0.0-19.19-0.19"},{"rate":0.7601678272592476,"trial_type":"html-keyboard-response","trial_index":63,"time_elapsed":392018,"internal_node_id":"0.0-19.19-1.19"},{"rt":null,"stimulus":"<div style=\"background-color:#6dce98\"><h1 style=\"background-color:MediumSeaGreen\" >You won a prize! Well done!</h1><div style=\"background-color:#6dce98\"><h1 style=\"background-color:MediumSeaGreen\" >Only 6 left to go!</h1><img id=\"box\" src=\"img/prizes/beachball.png\"></img><img id=\"box\" src=\"img/empty/purpleopenbox.png\"></img></div>","key_press":null,"trial_type":"html-keyboard-response","trial_index":63,"time_elapsed":393521,"internal_node_id":"0.0-19.19-1.19"},{"rt":454,"stimulus":"<p>Choose a box,</p>","button_pressed":0,"trial_type":"html-button-response","trial_index":64,"time_elapsed":393976,"internal_node_id":"0.0-19.20-0.20"},{"rate":0.5942617298908413,"trial_type":"html-keyboard-response","trial_index":65,"time_elapsed":393976,"internal_node_id":"0.0-19.20-1.20"},{"rt":null,"stimulus":"<div style=\"background-color:#ff7157\"><h1 style=\"background-color:Tomato\">Bad luck! There was no prize in the box!</h1><h1 style=\"background-color:Tomato\">Remember, you need to keep going until you have 20 prizes!</h1><img id=\"box\" src=\"img/sad/blueopenboxsadthumb.png\"></img></div>","key_press":null,"trial_type":"html-keyboard-response","trial_index":65,"time_elapsed":395478,"internal_node_id":"0.0-19.20-1.20"},{"rt":437,"stimulus":"<p>Choose a box,</p>","button_pressed":2,"trial_type":"html-button-response","trial_index":66,"time_elapsed":395917,"internal_node_id":"0.0-19.21-0.21"},{"rate":0.7601678272592476,"trial_type":"html-keyboard-response","trial_index":67,"time_elapsed":395917,"internal_node_id":"0.0-19.21-1.21"},{"rt":null,"stimulus":"<div style=\"background-color:#6dce98\"><h1 style=\"background-color:MediumSeaGreen\" >You won a prize! Well done!</h1><div style=\"background-color:#6dce98\"><h1 style=\"background-color:MediumSeaGreen\" >Only 5 left to go!</h1><img id=\"box\" src=\"img/prizes/flowers.png\"></img><img id=\"box\" src=\"img/empty/purpleopenbox.png\"></img></div>","key_press":null,"trial_type":"html-keyboard-response","trial_index":67,"time_elapsed":397419,"internal_node_id":"0.0-19.21-1.21"},{"rt":386,"stimulus":"<p>Choose a box,</p>","button_pressed":2,"trial_type":"html-button-response","trial_index":68,"time_elapsed":397808,"internal_node_id":"0.0-19.22-0.22"},{"rate":0.7601678272592476,"trial_type":"html-keyboard-response","trial_index":69,"time_elapsed":397808,"internal_node_id":"0.0-19.22-1.22"},{"rt":null,"stimulus":"<div style=\"background-color:#6dce98\"><h1 style=\"background-color:MediumSeaGreen\" >You won a prize! Well done!</h1><div style=\"background-color:#6dce98\"><h1 style=\"background-color:MediumSeaGreen\" >Only 4 left to go!</h1><img id=\"box\" src=\"img/prizes/yoyo.png\"></img><img id=\"box\" src=\"img/empty/purpleopenbox.png\"></img></div>","key_press":null,"trial_type":"html-keyboard-response","trial_index":69,"time_elapsed":399311,"internal_node_id":"0.0-19.22-1.22"},{"rt":378,"stimulus":"<p>Choose a box,</p>","button_pressed":2,"trial_type":"html-button-response","trial_index":70,"time_elapsed":399692,"internal_node_id":"0.0-19.23-0.23"},{"rate":0.7601678272592476,"trial_type":"html-keyboard-response","trial_index":71,"time_elapsed":399692,"internal_node_id":"0.0-19.23-1.23"},{"rt":null,"stimulus":"<div style=\"background-color:#6dce98\"><h1 style=\"background-color:MediumSeaGreen\" >You won a prize! Well done!</h1><div style=\"background-color:#6dce98\"><h1 style=\"background-color:MediumSeaGreen\" >Only 3 left to go!</h1><img id=\"box\" src=\"img/prizes/choc.png\"></img><img id=\"box\" src=\"img/empty/purpleopenbox.png\"></img></div>","key_press":null,"trial_type":"html-keyboard-response","trial_index":71,"time_elapsed":401196,"internal_node_id":"0.0-19.23-1.23"},{"rt":395,"stimulus":"<p>Choose a box,</p>","button_pressed":2,"trial_type":"html-button-response","trial_index":72,"time_elapsed":401592,"internal_node_id":"0.0-19.24-0.24"},{"rate":0.7601678272592476,"trial_type":"html-keyboard-response","trial_index":73,"time_elapsed":401592,"internal_node_id":"0.0-19.24-1.24"},{"rt":null,"stimulus":"<div style=\"background-color:#6dce98\"><h1 style=\"background-color:MediumSeaGreen\" >You won a prize! Well done!</h1><div style=\"background-color:#6dce98\"><h1 style=\"background-color:MediumSeaGreen\" >Only 2 left to go!</h1><img id=\"box\" src=\"img/prizes/choc.png\"></img><img id=\"box\" src=\"img/empty/purpleopenbox.png\"></img></div>","key_press":null,"trial_type":"html-keyboard-response","trial_index":73,"time_elapsed":403095,"internal_node_id":"0.0-19.24-1.24"},{"rt":380,"stimulus":"<p>Choose a box,</p>","button_pressed":2,"trial_type":"html-button-response","trial_index":74,"time_elapsed":403476,"internal_node_id":"0.0-19.25-0.25"},{"rate":0.7601678272592476,"trial_type":"html-keyboard-response","trial_index":75,"time_elapsed":403477,"internal_node_id":"0.0-19.25-1.25"},{"rt":null,"stimulus":"<div style=\"background-color:#6dce98\"><h1 style=\"background-color:MediumSeaGreen\" >You won a prize! Well done!</h1><div style=\"background-color:#6dce98\"><h1 style=\"background-color:MediumSeaGreen\" >Only 1 left to go!</h1><img id=\"box\" src=\"img/prizes/beachball.png\"></img><img id=\"box\" src=\"img/empty/purpleopenbox.png\"></img></div>","key_press":null,"trial_type":"html-keyboard-response","trial_index":75,"time_elapsed":404979,"internal_node_id":"0.0-19.25-1.25"},{"rt":427,"stimulus":"<p>Choose a box,</p>","button_pressed":2,"trial_type":"html-button-response","trial_index":76,"time_elapsed":405408,"internal_node_id":"0.0-19.26-0.26"},{"rate":0.7601678272592476,"trial_type":"html-keyboard-response","trial_index":77,"time_elapsed":405409,"internal_node_id":"0.0-19.26-1.26"},{"rt":null,"stimulus":"<div style=\"background-color:#6dce98\"><h1 style=\"background-color:MediumSeaGreen\" >You won a prize! Well done!</h1><div style=\"background-color:#6dce98\"><h1 style=\"background-color:MediumSeaGreen\" >Only 0 left to go!</h1><img id=\"box\" src=\"img/prizes/choc.png\"></img><img id=\"box\" src=\"img/empty/purpleopenbox.png\"></img></div>","key_press":null,"trial_type":"html-keyboard-response","trial_index":77,"time_elapsed":406912,"internal_node_id":"0.0-19.26-1.26"},{"rt":33159.00000000006,"responses":"{\"Q0\":\"it was interesting\",\"Q1\":\"always pic the same and/or switch between two of them\"}","trial_type":"survey-text","trial_index":78,"time_elapsed":440074,"internal_node_id":"0.0-20.0"}]