[{"view_history":"[{\"page_index\":0,\"viewing_time\":4147},{\"page_index\":1,\"viewing_time\":9854},{\"page_index\":2,\"viewing_time\":1329},{\"page_index\":3,\"viewing_time\":1184},{\"page_index\":4,\"viewing_time\":1479},{\"page_index\":5,\"viewing_time\":2056}]","rt":20052,"trial_type":"instructions","trial_index":0,"time_elapsed":20056,"internal_node_id":"0.0-0.0"},{"rt":3415,"responses":"{\"Q0\":\"Yes\",\"Q1\":\"Yes\",\"Q2\":\"Yes\"}","question_order":"[0,1,2]","trial_type":"survey-multi-choice","trial_index":1,"time_elapsed":23480,"internal_node_id":"0.0-1.0-0.0"},{"rt":2951,"responses":"{\"Q0\":\"Yes\",\"Q1\":\"Yes\",\"Q2\":\"Yes\"}","question_order":"[0,1,2]","trial_type":"survey-multi-choice","trial_index":2,"time_elapsed":26434,"internal_node_id":"0.0-2.0-0.0"},{"rt":4879,"responses":"{\"Q0\":\"Danielle\"}","trial_type":"survey-text","trial_index":3,"time_elapsed":31327,"internal_node_id":"0.0-3.0"},{"rt":6740,"responses":"{\"Q0\":\"Female\",\"Q1\":\"18-25\"}","question_order":"[0,1]","trial_type":"survey-multi-choice","trial_index":4,"time_elapsed":38072,"internal_node_id":"0.0-4.0"},{"rt":5226,"responses":"{\"Q0\":\"\"}","trial_type":"survey-text","trial_index":5,"time_elapsed":43309,"internal_node_id":"0.0-5.0"},{"view_history":"[{\"page_index\":0,\"viewing_time\":2037.9999999999927}]","rt":2038.9999999999927,"trial_type":"instructions","trial_index":6,"time_elapsed":45349,"internal_node_id":"0.0-6.0"},{"rt":11898.000000000007,"responses":"{\"Interested\":3,\"Distressed\":4,\"Excited\":3,\"Upset\":3}","question_order":"[0,1,2,3]","trial_type":"survey-likert","trial_index":7,"time_elapsed":57259,"internal_node_id":"0.0-7.0"},{"rt":8045.999999999993,"responses":"{\"Strong\":1,\"Guilty\":0,\"Scared\":3,\"Hostile\":1}","question_order":"[0,1,2,3]","trial_type":"survey-likert","trial_index":8,"time_elapsed":65312,"internal_node_id":"0.0-8.0"},{"rt":7474,"responses":"{\"Enthusiastic\":2,\"Proud\":3,\"Irritable\":3,\"Alert\":3}","question_order":"[0,1,2,3]","trial_type":"survey-likert","trial_index":9,"time_elapsed":72795,"internal_node_id":"0.0-9.0"},{"rt":9224,"responses":"{\"Ashamed\":0,\"Inspired\":3,\"Nervous\":4,\"Determined\":2}","question_order":"[0,1,2,3]","trial_type":"survey-likert","trial_index":10,"time_elapsed":82027,"internal_node_id":"0.0-10.0"},{"rt":7992,"responses":"{\"Attentive\":3,\"Jittery\":4,\"Active\":0,\"Afraid\":3}","question_order":"[0,1,2,3]","trial_type":"survey-likert","trial_index":11,"time_elapsed":90028,"internal_node_id":"0.0-11.0"},{"rt":14153,"responses":"{\"Q0\":2,\"Q1\":2,\"Q2\":3,\"Q3\":1}","question_order":"[0,1,2,3]","trial_type":"survey-likert","trial_index":12,"time_elapsed":104188,"internal_node_id":"0.0-12.0"},{"rt":25530.999999999985,"responses":"{\"Q0\":2,\"Q1\":3,\"Q2\":1,\"Q3\":2}","question_order":"[0,1,2,3]","trial_type":"survey-likert","trial_index":13,"time_elapsed":129725,"internal_node_id":"0.0-13.0"},{"rt":19153,"responses":"{\"Q0\":2,\"Q1\":2,\"Q2\":2,\"Q3\":1}","question_order":"[0,1,2,3]","trial_type":"survey-likert","trial_index":14,"time_elapsed":148886,"internal_node_id":"0.0-14.0"},{"rt":94656,"responses":"{\"Q0\":1,\"Q1\":0,\"Q2\":3}","question_order":"[0,1,2]","trial_type":"survey-likert","trial_index":15,"time_elapsed":244021,"internal_node_id":"0.0-15.0"},{"view_history":"[{\"page_index\":0,\"viewing_time\":2633},{\"page_index\":1,\"viewing_time\":7845},{\"page_index\":2,\"viewing_time\":5503.999999999971}]","rt":15985.00000000003,"trial_type":"instructions","trial_index":16,"time_elapsed":260027,"internal_node_id":"0.0-16.0"},{"rt":3542.999999999971,"stimulus":"<p>Choose a box,</p>","button_pressed":3,"trial_type":"html-button-response","trial_index":17,"time_elapsed":263577,"internal_node_id":"0.0-17.0-0.0"},{"rate":0.471369768398881,"trial_type":"html-keyboard-response","trial_index":18,"time_elapsed":263580,"internal_node_id":"0.0-17.0-1.0"},{"rt":null,"stimulus":"<div style=\"background-color:#ff7157\"><h1 style=\"background-color:Tomato\">Bad luck! There was no prize in the box!</h1><h1 style=\"background-color:Tomato\">Remember, you need to keep going until you have 20 prizes!</h1><img id=\"box\" src=\"img/sad/redopenboxsadthumb.png\"></img></div>","key_press":null,"trial_type":"html-keyboard-response","trial_index":18,"time_elapsed":265087,"internal_node_id":"0.0-17.0-1.0"},{"rt":1458,"stimulus":"<p>Choose a box,</p>","button_pressed":2,"trial_type":"html-button-response","trial_index":19,"time_elapsed":266551,"internal_node_id":"0.0-17.0-0.1"},{"rate":0.17904538028059794,"trial_type":"html-keyboard-response","trial_index":20,"time_elapsed":266552,"internal_node_id":"0.0-17.0-1.1"},{"rt":null,"stimulus":"<div style=\"background-color:#ff7157\"><h1 style=\"background-color:Tomato\">Bad luck! There was no prize in the box!</h1><h1 style=\"background-color:Tomato\">Remember, you need to keep going until you have 20 prizes!</h1><img id=\"box\" src=\"img/sad/purpleopenboxsadthumb.png\"></img></div>","key_press":null,"trial_type":"html-keyboard-response","trial_index":20,"time_elapsed":268056,"internal_node_id":"0.0-17.0-1.1"},{"rt":1027,"stimulus":"<p>Choose a box,</p>","button_pressed":1,"trial_type":"html-button-response","trial_index":21,"time_elapsed":269087,"internal_node_id":"0.0-17.0-0.2"},{"rate":0.2936452383749252,"trial_type":"html-keyboard-response","trial_index":22,"time_elapsed":269088,"internal_node_id":"0.0-17.0-1.2"},{"rt":null,"stimulus":"<div style=\"background-color:#ff7157\"><h1 style=\"background-color:Tomato\">Bad luck! There was no prize in the box!</h1><h1 style=\"background-color:Tomato\">Remember, you need to keep going until you have 20 prizes!</h1><img id=\"box\" src=\"img/sad/greenopenboxsadthumb.png\"></img></div>","key_press":null,"trial_type":"html-keyboard-response","trial_index":22,"time_elapsed":270592,"internal_node_id":"0.0-17.0-1.2"},{"view_history":"[{\"page_index\":0,\"viewing_time\":2497}]","rt":2497,"trial_type":"instructions","trial_index":23,"time_elapsed":273095,"internal_node_id":"0.0-18.0"},{"rt":2163,"stimulus":"<p>Choose a box,</p>","button_pressed":0,"trial_type":"html-button-response","trial_index":24,"time_elapsed":275262,"internal_node_id":"0.0-19.0-0.0"},{"rate":0.21852190135105146,"trial_type":"html-keyboard-response","trial_index":25,"time_elapsed":275264,"internal_node_id":"0.0-19.0-1.0"},{"rt":null,"stimulus":"<div style=\"background-color:#ff7157\"><h1 style=\"background-color:Tomato\">Bad luck! There was no prize in the box!</h1><h1 style=\"background-color:Tomato\">Remember, you need to keep going until you have 20 prizes!</h1><img id=\"box\" src=\"img/sad/blueopenboxsadthumb.png\"></img></div>","key_press":null,"trial_type":"html-keyboard-response","trial_index":25,"time_elapsed":276768,"internal_node_id":"0.0-19.0-1.0"},{"rt":1591,"stimulus":"<p>Choose a box,</p>","button_pressed":2,"trial_type":"html-button-response","trial_index":26,"time_elapsed":278364,"internal_node_id":"0.0-19.1-0.1"},{"rate":0.6051561329130174,"trial_type":"html-keyboard-response","trial_index":27,"time_elapsed":278365,"internal_node_id":"0.0-19.1-1.1"},{"rt":null,"stimulus":"<div style=\"background-color:#6dce98\"><h1 style=\"background-color:MediumSeaGreen\" >You won a prize! Well done!</h1><div style=\"background-color:#6dce98\"><h1 style=\"background-color:MediumSeaGreen\" >Only 19 left to go!</h1><img id=\"box\" src=\"img/prizes/beachball.png\"></img><img id=\"box\" src=\"img/empty/purpleopenbox.png\"></img></div>","key_press":null,"trial_type":"html-keyboard-response","trial_index":27,"time_elapsed":279870,"internal_node_id":"0.0-19.1-1.1"},{"rt":1100,"stimulus":"<p>Choose a box,</p>","button_pressed":3,"trial_type":"html-button-response","trial_index":28,"time_elapsed":280976,"internal_node_id":"0.0-19.2-0.2"},{"rate":0.3940152328801304,"trial_type":"html-keyboard-response","trial_index":29,"time_elapsed":280977,"internal_node_id":"0.0-19.2-1.2"},{"rt":null,"stimulus":"<div style=\"background-color:#ff7157\"><h1 style=\"background-color:Tomato\">Bad luck! There was no prize in the box!</h1><h1 style=\"background-color:Tomato\">Remember, you need to keep going until you have 20 prizes!</h1><img id=\"box\" src=\"img/sad/redopenboxsadthumb.png\"></img></div>","key_press":null,"trial_type":"html-keyboard-response","trial_index":29,"time_elapsed":282480,"internal_node_id":"0.0-19.2-1.2"},{"rt":906,"stimulus":"<p>Choose a box,</p>","button_pressed":1,"trial_type":"html-button-response","trial_index":30,"time_elapsed":283389,"internal_node_id":"0.0-19.3-0.3"},{"rate":0.7499539954807004,"trial_type":"html-keyboard-response","trial_index":31,"time_elapsed":283389,"internal_node_id":"0.0-19.3-1.3"},{"rt":null,"stimulus":"<div style=\"background-color:#6dce98\"><h1 style=\"background-color:MediumSeaGreen\" >You won a prize! Well done!</h1><div style=\"background-color:#6dce98\"><h1 style=\"background-color:MediumSeaGreen\" >Only 18 left to go!</h1><img id=\"box\" src=\"img/prizes/beachball.png\"></img><img id=\"box\" src=\"img/empty/greenopenbox.png\"></img></div>","key_press":null,"trial_type":"html-keyboard-response","trial_index":31,"time_elapsed":284892,"internal_node_id":"0.0-19.3-1.3"},{"rt":971,"stimulus":"<p>Choose a box,</p>","button_pressed":0,"trial_type":"html-button-response","trial_index":32,"time_elapsed":285865,"internal_node_id":"0.0-19.4-0.4"},{"rate":0.21852190135105146,"trial_type":"html-keyboard-response","trial_index":33,"time_elapsed":285866,"internal_node_id":"0.0-19.4-1.4"},{"rt":null,"stimulus":"<div style=\"background-color:#ff7157\"><h1 style=\"background-color:Tomato\">Bad luck! There was no prize in the box!</h1><h1 style=\"background-color:Tomato\">Remember, you need to keep going until you have 20 prizes!</h1><img id=\"box\" src=\"img/sad/blueopenboxsadthumb.png\"></img></div>","key_press":null,"trial_type":"html-keyboard-response","trial_index":33,"time_elapsed":287369,"internal_node_id":"0.0-19.4-1.4"},{"rt":879,"stimulus":"<p>Choose a box,</p>","button_pressed":0,"trial_type":"html-button-response","trial_index":34,"time_elapsed":288252,"internal_node_id":"0.0-19.5-0.5"},{"rate":0.21852190135105146,"trial_type":"html-keyboard-response","trial_index":35,"time_elapsed":288253,"internal_node_id":"0.0-19.5-1.5"},{"rt":null,"stimulus":"<div style=\"background-color:#6dce98\"><h1 style=\"background-color:MediumSeaGreen\" >You won a prize! Well done!</h1><div style=\"background-color:#6dce98\"><h1 style=\"background-color:MediumSeaGreen\" >Only 17 left to go!</h1><img id=\"box\" src=\"img/prizes/yoyo.png\"></img><img id=\"box\" src=\"img/empty/blueopenbox.png\"></img></div>","key_press":null,"trial_type":"html-keyboard-response","trial_index":35,"time_elapsed":289761,"internal_node_id":"0.0-19.5-1.5"},{"rt":2029,"stimulus":"<p>Choose a box,</p>","button_pressed":0,"trial_type":"html-button-response","trial_index":36,"time_elapsed":291794,"internal_node_id":"0.0-19.6-0.6"},{"rate":0.21852190135105146,"trial_type":"html-keyboard-response","trial_index":37,"time_elapsed":291797,"internal_node_id":"0.0-19.6-1.6"},{"rt":null,"stimulus":"<div style=\"background-color:#ff7157\"><h1 style=\"background-color:Tomato\">Bad luck! There was no prize in the box!</h1><h1 style=\"background-color:Tomato\">Remember, you need to keep going until you have 20 prizes!</h1><img id=\"box\" src=\"img/sad/blueopenboxsadthumb.png\"></img></div>","key_press":null,"trial_type":"html-keyboard-response","trial_index":37,"time_elapsed":293301,"internal_node_id":"0.0-19.6-1.6"},{"rt":1000,"stimulus":"<p>Choose a box,</p>","button_pressed":1,"trial_type":"html-button-response","trial_index":38,"time_elapsed":294306,"internal_node_id":"0.0-19.7-0.7"},{"rate":0.7499539954807004,"trial_type":"html-keyboard-response","trial_index":39,"time_elapsed":294308,"internal_node_id":"0.0-19.7-1.7"},{"rt":null,"stimulus":"<div style=\"background-color:#6dce98\"><h1 style=\"background-color:MediumSeaGreen\" >You won a prize! Well done!</h1><div style=\"background-color:#6dce98\"><h1 style=\"background-color:MediumSeaGreen\" >Only 16 left to go!</h1><img id=\"box\" src=\"img/prizes/yoyo.png\"></img><img id=\"box\" src=\"img/empty/greenopenbox.png\"></img></div>","key_press":null,"trial_type":"html-keyboard-response","trial_index":39,"time_elapsed":295811,"internal_node_id":"0.0-19.7-1.7"},{"rt":1148,"stimulus":"<p>Choose a box,</p>","button_pressed":0,"trial_type":"html-button-response","trial_index":40,"time_elapsed":296965,"internal_node_id":"0.0-19.8-0.8"},{"rate":0.21852190135105146,"trial_type":"html-keyboard-response","trial_index":41,"time_elapsed":296966,"internal_node_id":"0.0-19.8-1.8"},{"rt":null,"stimulus":"<div style=\"background-color:#ff7157\"><h1 style=\"background-color:Tomato\">Bad luck! There was no prize in the box!</h1><h1 style=\"background-color:Tomato\">Remember, you need to keep going until you have 20 prizes!</h1><img id=\"box\" src=\"img/sad/blueopenboxsadthumb.png\"></img></div>","key_press":null,"trial_type":"html-keyboard-response","trial_index":41,"time_elapsed":298470,"internal_node_id":"0.0-19.8-1.8"},{"rt":1543,"stimulus":"<p>Choose a box,</p>","button_pressed":3,"trial_type":"html-button-response","trial_index":42,"time_elapsed":300017,"internal_node_id":"0.0-19.9-0.9"},{"rate":0.3940152328801304,"trial_type":"html-keyboard-response","trial_index":43,"time_elapsed":300018,"internal_node_id":"0.0-19.9-1.9"},{"rt":null,"stimulus":"<div style=\"background-color:#6dce98\"><h1 style=\"background-color:MediumSeaGreen\" >You won a prize! Well done!</h1><div style=\"background-color:#6dce98\"><h1 style=\"background-color:MediumSeaGreen\" >Only 15 left to go!</h1><img id=\"box\" src=\"img/prizes/duck.png\"></img><img id=\"box\" src=\"img/empty/redopenbox.png\"></img></div>","key_press":null,"trial_type":"html-keyboard-response","trial_index":43,"time_elapsed":301523,"internal_node_id":"0.0-19.9-1.9"},{"rt":1198,"stimulus":"<p>Choose a box,</p>","button_pressed":1,"trial_type":"html-button-response","trial_index":44,"time_elapsed":302725,"internal_node_id":"0.0-19.10-0.10"},{"rate":0.7499539954807004,"trial_type":"html-keyboard-response","trial_index":45,"time_elapsed":302726,"internal_node_id":"0.0-19.10-1.10"},{"rt":null,"stimulus":"<div style=\"background-color:#6dce98\"><h1 style=\"background-color:MediumSeaGreen\" >You won a prize! Well done!</h1><div style=\"background-color:#6dce98\"><h1 style=\"background-color:MediumSeaGreen\" >Only 14 left to go!</h1><img id=\"box\" src=\"img/prizes/beachball.png\"></img><img id=\"box\" src=\"img/empty/greenopenbox.png\"></img></div>","key_press":null,"trial_type":"html-keyboard-response","trial_index":45,"time_elapsed":304230,"internal_node_id":"0.0-19.10-1.10"},{"rt":1159,"stimulus":"<p>Choose a box,</p>","button_pressed":0,"trial_type":"html-button-response","trial_index":46,"time_elapsed":305395,"internal_node_id":"0.0-19.11-0.11"},{"rate":0.21852190135105146,"trial_type":"html-keyboard-response","trial_index":47,"time_elapsed":305395,"internal_node_id":"0.0-19.11-1.11"},{"rt":null,"stimulus":"<div style=\"background-color:#ff7157\"><h1 style=\"background-color:Tomato\">Bad luck! There was no prize in the box!</h1><h1 style=\"background-color:Tomato\">Remember, you need to keep going until you have 20 prizes!</h1><img id=\"box\" src=\"img/sad/blueopenboxsadthumb.png\"></img></div>","key_press":null,"trial_type":"html-keyboard-response","trial_index":47,"time_elapsed":306900,"internal_node_id":"0.0-19.11-1.11"},{"rt":888,"stimulus":"<p>Choose a box,</p>","button_pressed":2,"trial_type":"html-button-response","trial_index":48,"time_elapsed":307793,"internal_node_id":"0.0-19.12-0.12"},{"rate":0.6051561329130174,"trial_type":"html-keyboard-response","trial_index":49,"time_elapsed":307795,"internal_node_id":"0.0-19.12-1.12"},{"rt":null,"stimulus":"<div style=\"background-color:#6dce98\"><h1 style=\"background-color:MediumSeaGreen\" >You won a prize! Well done!</h1><div style=\"background-color:#6dce98\"><h1 style=\"background-color:MediumSeaGreen\" >Only 13 left to go!</h1><img id=\"box\" src=\"img/prizes/bear.png\"></img><img id=\"box\" src=\"img/empty/purpleopenbox.png\"></img></div>","key_press":null,"trial_type":"html-keyboard-response","trial_index":49,"time_elapsed":309298,"internal_node_id":"0.0-19.12-1.12"},{"rt":1226.0000000000582,"stimulus":"<p>Choose a box,</p>","button_pressed":3,"trial_type":"html-button-response","trial_index":50,"time_elapsed":310528,"internal_node_id":"0.0-19.13-0.13"},{"rate":0.3940152328801304,"trial_type":"html-keyboard-response","trial_index":51,"time_elapsed":310529,"internal_node_id":"0.0-19.13-1.13"},{"rt":null,"stimulus":"<div style=\"background-color:#ff7157\"><h1 style=\"background-color:Tomato\">Bad luck! There was no prize in the box!</h1><h1 style=\"background-color:Tomato\">Remember, you need to keep going until you have 20 prizes!</h1><img id=\"box\" src=\"img/sad/redopenboxsadthumb.png\"></img></div>","key_press":null,"trial_type":"html-keyboard-response","trial_index":51,"time_elapsed":312032,"internal_node_id":"0.0-19.13-1.13"},{"rt":911,"stimulus":"<p>Choose a box,</p>","button_pressed":1,"trial_type":"html-button-response","trial_index":52,"time_elapsed":312947,"internal_node_id":"0.0-19.14-0.14"},{"rate":0.7499539954807004,"trial_type":"html-keyboard-response","trial_index":53,"time_elapsed":312948,"internal_node_id":"0.0-19.14-1.14"},{"rt":null,"stimulus":"<div style=\"background-color:#6dce98\"><h1 style=\"background-color:MediumSeaGreen\" >You won a prize! Well done!</h1><div style=\"background-color:#6dce98\"><h1 style=\"background-color:MediumSeaGreen\" >Only 12 left to go!</h1><img id=\"box\" src=\"img/prizes/duck.png\"></img><img id=\"box\" src=\"img/empty/greenopenbox.png\"></img></div>","key_press":null,"trial_type":"html-keyboard-response","trial_index":53,"time_elapsed":314453,"internal_node_id":"0.0-19.14-1.14"},{"rt":1053.9999999999418,"stimulus":"<p>Choose a box,</p>","button_pressed":0,"trial_type":"html-button-response","trial_index":54,"time_elapsed":315510,"internal_node_id":"0.0-19.15-0.15"},{"rate":0.21852190135105146,"trial_type":"html-keyboard-response","trial_index":55,"time_elapsed":315510,"internal_node_id":"0.0-19.15-1.15"},{"rt":null,"stimulus":"<div style=\"background-color:#6dce98\"><h1 style=\"background-color:MediumSeaGreen\" >You won a prize! Well done!</h1><div style=\"background-color:#6dce98\"><h1 style=\"background-color:MediumSeaGreen\" >Only 11 left to go!</h1><img id=\"box\" src=\"img/prizes/flowers.png\"></img><img id=\"box\" src=\"img/empty/blueopenbox.png\"></img></div>","key_press":null,"trial_type":"html-keyboard-response","trial_index":55,"time_elapsed":317012,"internal_node_id":"0.0-19.15-1.15"},{"rt":1953.0000000000582,"stimulus":"<p>Choose a box,</p>","button_pressed":3,"trial_type":"html-button-response","trial_index":56,"time_elapsed":318968,"internal_node_id":"0.0-19.16-0.16"},{"rate":0.3940152328801304,"trial_type":"html-keyboard-response","trial_index":57,"time_elapsed":318968,"internal_node_id":"0.0-19.16-1.16"},{"rt":null,"stimulus":"<div style=\"background-color:#ff7157\"><h1 style=\"background-color:Tomato\">Bad luck! There was no prize in the box!</h1><h1 style=\"background-color:Tomato\">Remember, you need to keep going until you have 20 prizes!</h1><img id=\"box\" src=\"img/sad/redopenboxsadthumb.png\"></img></div>","key_press":null,"trial_type":"html-keyboard-response","trial_index":57,"time_elapsed":320472,"internal_node_id":"0.0-19.16-1.16"},{"rt":1697,"stimulus":"<p>Choose a box,</p>","button_pressed":0,"trial_type":"html-button-response","trial_index":58,"time_elapsed":322173,"internal_node_id":"0.0-19.17-0.17"},{"rate":0.21852190135105146,"trial_type":"html-keyboard-response","trial_index":59,"time_elapsed":322173,"internal_node_id":"0.0-19.17-1.17"},{"rt":null,"stimulus":"<div style=\"background-color:#ff7157\"><h1 style=\"background-color:Tomato\">Bad luck! There was no prize in the box!</h1><h1 style=\"background-color:Tomato\">Remember, you need to keep going until you have 20 prizes!</h1><img id=\"box\" src=\"img/sad/blueopenboxsadthumb.png\"></img></div>","key_press":null,"trial_type":"html-keyboard-response","trial_index":59,"time_elapsed":323676,"internal_node_id":"0.0-19.17-1.17"},{"rt":1442,"stimulus":"<p>Choose a box,</p>","button_pressed":1,"trial_type":"html-button-response","trial_index":60,"time_elapsed":325121,"internal_node_id":"0.0-19.18-0.18"},{"rate":0.7499539954807004,"trial_type":"html-keyboard-response","trial_index":61,"time_elapsed":325122,"internal_node_id":"0.0-19.18-1.18"},{"rt":null,"stimulus":"<div style=\"background-color:#6dce98\"><h1 style=\"background-color:MediumSeaGreen\" >You won a prize! Well done!</h1><div style=\"background-color:#6dce98\"><h1 style=\"background-color:MediumSeaGreen\" >Only 10 left to go!</h1><img id=\"box\" src=\"img/prizes/coins.png\"></img><img id=\"box\" src=\"img/empty/greenopenbox.png\"></img></div>","key_press":null,"trial_type":"html-keyboard-response","trial_index":61,"time_elapsed":326626,"internal_node_id":"0.0-19.18-1.18"},{"rt":1669,"stimulus":"<p>Choose a box,</p>","button_pressed":2,"trial_type":"html-button-response","trial_index":62,"time_elapsed":328299,"internal_node_id":"0.0-19.19-0.19"},{"rate":0.6051561329130174,"trial_type":"html-keyboard-response","trial_index":63,"time_elapsed":328299,"internal_node_id":"0.0-19.19-1.19"},{"rt":null,"stimulus":"<div style=\"background-color:#ff7157\"><h1 style=\"background-color:Tomato\">Bad luck! There was no prize in the box!</h1><h1 style=\"background-color:Tomato\">Remember, you need to keep going until you have 20 prizes!</h1><img id=\"box\" src=\"img/sad/purpleopenboxsadthumb.png\"></img></div>","key_press":null,"trial_type":"html-keyboard-response","trial_index":63,"time_elapsed":329803,"internal_node_id":"0.0-19.19-1.19"},{"rt":908,"stimulus":"<p>Choose a box,</p>","button_pressed":1,"trial_type":"html-button-response","trial_index":64,"time_elapsed":330714,"internal_node_id":"0.0-19.20-0.20"},{"rate":0.7499539954807004,"trial_type":"html-keyboard-response","trial_index":65,"time_elapsed":330714,"internal_node_id":"0.0-19.20-1.20"},{"rt":null,"stimulus":"<div style=\"background-color:#6dce98\"><h1 style=\"background-color:MediumSeaGreen\" >You won a prize! Well done!</h1><div style=\"background-color:#6dce98\"><h1 style=\"background-color:MediumSeaGreen\" >Only 9 left to go!</h1><img id=\"box\" src=\"img/prizes/bear.png\"></img><img id=\"box\" src=\"img/empty/greenopenbox.png\"></img></div>","key_press":null,"trial_type":"html-keyboard-response","trial_index":65,"time_elapsed":332219,"internal_node_id":"0.0-19.20-1.20"},{"rt":1553,"stimulus":"<p>Choose a box,</p>","button_pressed":0,"trial_type":"html-button-response","trial_index":66,"time_elapsed":333776,"internal_node_id":"0.0-19.21-0.21"},{"rate":0.21852190135105146,"trial_type":"html-keyboard-response","trial_index":67,"time_elapsed":333776,"internal_node_id":"0.0-19.21-1.21"},{"rt":null,"stimulus":"<div style=\"background-color:#ff7157\"><h1 style=\"background-color:Tomato\">Bad luck! There was no prize in the box!</h1><h1 style=\"background-color:Tomato\">Remember, you need to keep going until you have 20 prizes!</h1><img id=\"box\" src=\"img/sad/blueopenboxsadthumb.png\"></img></div>","key_press":null,"trial_type":"html-keyboard-response","trial_index":67,"time_elapsed":335280,"internal_node_id":"0.0-19.21-1.21"},{"rt":1241.9999999999418,"stimulus":"<p>Choose a box,</p>","button_pressed":2,"trial_type":"html-button-response","trial_index":68,"time_elapsed":336525,"internal_node_id":"0.0-19.22-0.22"},{"rate":0.6051561329130174,"trial_type":"html-keyboard-response","trial_index":69,"time_elapsed":336525,"internal_node_id":"0.0-19.22-1.22"},{"rt":null,"stimulus":"<div style=\"background-color:#6dce98\"><h1 style=\"background-color:MediumSeaGreen\" >You won a prize! Well done!</h1><div style=\"background-color:#6dce98\"><h1 style=\"background-color:MediumSeaGreen\" >Only 8 left to go!</h1><img id=\"box\" src=\"img/prizes/ring.png\"></img><img id=\"box\" src=\"img/empty/purpleopenbox.png\"></img></div>","key_press":null,"trial_type":"html-keyboard-response","trial_index":69,"time_elapsed":338030,"internal_node_id":"0.0-19.22-1.22"},{"rt":1277,"stimulus":"<p>Choose a box,</p>","button_pressed":3,"trial_type":"html-button-response","trial_index":70,"time_elapsed":339311,"internal_node_id":"0.0-19.23-0.23"},{"rate":0.3940152328801304,"trial_type":"html-keyboard-response","trial_index":71,"time_elapsed":339312,"internal_node_id":"0.0-19.23-1.23"},{"rt":null,"stimulus":"<div style=\"background-color:#ff7157\"><h1 style=\"background-color:Tomato\">Bad luck! There was no prize in the box!</h1><h1 style=\"background-color:Tomato\">Remember, you need to keep going until you have 20 prizes!</h1><img id=\"box\" src=\"img/sad/redopenboxsadthumb.png\"></img></div>","key_press":null,"trial_type":"html-keyboard-response","trial_index":71,"time_elapsed":340815,"internal_node_id":"0.0-19.23-1.23"},{"rt":1209.9999999999418,"stimulus":"<p>Choose a box,</p>","button_pressed":0,"trial_type":"html-button-response","trial_index":72,"time_elapsed":342029,"internal_node_id":"0.0-19.24-0.24"},{"rate":0.21852190135105146,"trial_type":"html-keyboard-response","trial_index":73,"time_elapsed":342038,"internal_node_id":"0.0-19.24-1.24"},{"rt":null,"stimulus":"<div style=\"background-color:#ff7157\"><h1 style=\"background-color:Tomato\">Bad luck! There was no prize in the box!</h1><h1 style=\"background-color:Tomato\">Remember, you need to keep going until you have 20 prizes!</h1><img id=\"box\" src=\"img/sad/blueopenboxsadthumb.png\"></img></div>","key_press":null,"trial_type":"html-keyboard-response","trial_index":73,"time_elapsed":343542,"internal_node_id":"0.0-19.24-1.24"},{"rt":886,"stimulus":"<p>Choose a box,</p>","button_pressed":1,"trial_type":"html-button-response","trial_index":74,"time_elapsed":344438,"internal_node_id":"0.0-19.25-0.25"},{"rate":0.7499539954807004,"trial_type":"html-keyboard-response","trial_index":75,"time_elapsed":344438,"internal_node_id":"0.0-19.25-1.25"},{"rt":null,"stimulus":"<div style=\"background-color:#6dce98\"><h1 style=\"background-color:MediumSeaGreen\" >You won a prize! Well done!</h1><div style=\"background-color:#6dce98\"><h1 style=\"background-color:MediumSeaGreen\" >Only 7 left to go!</h1><img id=\"box\" src=\"img/prizes/choc.png\"></img><img id=\"box\" src=\"img/empty/greenopenbox.png\"></img></div>","key_press":null,"trial_type":"html-keyboard-response","trial_index":75,"time_elapsed":345942,"internal_node_id":"0.0-19.25-1.25"},{"rt":923,"stimulus":"<p>Choose a box,</p>","button_pressed":2,"trial_type":"html-button-response","trial_index":76,"time_elapsed":346870,"internal_node_id":"0.0-19.26-0.26"},{"rate":0.6051561329130174,"trial_type":"html-keyboard-response","trial_index":77,"time_elapsed":346871,"internal_node_id":"0.0-19.26-1.26"},{"rt":null,"stimulus":"<div style=\"background-color:#6dce98\"><h1 style=\"background-color:MediumSeaGreen\" >You won a prize! Well done!</h1><div style=\"background-color:#6dce98\"><h1 style=\"background-color:MediumSeaGreen\" >Only 6 left to go!</h1><img id=\"box\" src=\"img/prizes/beachball.png\"></img><img id=\"box\" src=\"img/empty/purpleopenbox.png\"></img></div>","key_press":null,"trial_type":"html-keyboard-response","trial_index":77,"time_elapsed":348375,"internal_node_id":"0.0-19.26-1.26"},{"rt":1193.9999999999418,"stimulus":"<p>Choose a box,</p>","button_pressed":1,"trial_type":"html-button-response","trial_index":78,"time_elapsed":349573,"internal_node_id":"0.0-19.27-0.27"},{"rate":0.7499539954807004,"trial_type":"html-keyboard-response","trial_index":79,"time_elapsed":349573,"internal_node_id":"0.0-19.27-1.27"},{"rt":null,"stimulus":"<div style=\"background-color:#6dce98\"><h1 style=\"background-color:MediumSeaGreen\" >You won a prize! Well done!</h1><div style=\"background-color:#6dce98\"><h1 style=\"background-color:MediumSeaGreen\" >Only 5 left to go!</h1><img id=\"box\" src=\"img/prizes/flowers.png\"></img><img id=\"box\" src=\"img/empty/greenopenbox.png\"></img></div>","key_press":null,"trial_type":"html-keyboard-response","trial_index":79,"time_elapsed":351078,"internal_node_id":"0.0-19.27-1.27"},{"rt":861,"stimulus":"<p>Choose a box,</p>","button_pressed":2,"trial_type":"html-button-response","trial_index":80,"time_elapsed":351942,"internal_node_id":"0.0-19.28-0.28"},{"rate":0.6051561329130174,"trial_type":"html-keyboard-response","trial_index":81,"time_elapsed":351943,"internal_node_id":"0.0-19.28-1.28"},{"rt":null,"stimulus":"<div style=\"background-color:#6dce98\"><h1 style=\"background-color:MediumSeaGreen\" >You won a prize! Well done!</h1><div style=\"background-color:#6dce98\"><h1 style=\"background-color:MediumSeaGreen\" >Only 4 left to go!</h1><img id=\"box\" src=\"img/prizes/yoyo.png\"></img><img id=\"box\" src=\"img/empty/purpleopenbox.png\"></img></div>","key_press":null,"trial_type":"html-keyboard-response","trial_index":81,"time_elapsed":353447,"internal_node_id":"0.0-19.28-1.28"},{"rt":807,"stimulus":"<p>Choose a box,</p>","button_pressed":1,"trial_type":"html-button-response","trial_index":82,"time_elapsed":354258,"internal_node_id":"0.0-19.29-0.29"},{"rate":0.7499539954807004,"trial_type":"html-keyboard-response","trial_index":83,"time_elapsed":354259,"internal_node_id":"0.0-19.29-1.29"},{"rt":null,"stimulus":"<div style=\"background-color:#6dce98\"><h1 style=\"background-color:MediumSeaGreen\" >You won a prize! Well done!</h1><div style=\"background-color:#6dce98\"><h1 style=\"background-color:MediumSeaGreen\" >Only 3 left to go!</h1><img id=\"box\" src=\"img/prizes/lolipop.png\"></img><img id=\"box\" src=\"img/empty/greenopenbox.png\"></img></div>","key_press":null,"trial_type":"html-keyboard-response","trial_index":83,"time_elapsed":355763,"internal_node_id":"0.0-19.29-1.29"},{"rt":821,"stimulus":"<p>Choose a box,</p>","button_pressed":2,"trial_type":"html-button-response","trial_index":84,"time_elapsed":356589,"internal_node_id":"0.0-19.30-0.30"},{"rate":0.6051561329130174,"trial_type":"html-keyboard-response","trial_index":85,"time_elapsed":356589,"internal_node_id":"0.0-19.30-1.30"},{"rt":null,"stimulus":"<div style=\"background-color:#ff7157\"><h1 style=\"background-color:Tomato\">Bad luck! There was no prize in the box!</h1><h1 style=\"background-color:Tomato\">Remember, you need to keep going until you have 20 prizes!</h1><img id=\"box\" src=\"img/sad/purpleopenboxsadthumb.png\"></img></div>","key_press":null,"trial_type":"html-keyboard-response","trial_index":85,"time_elapsed":358093,"internal_node_id":"0.0-19.30-1.30"},{"rt":997,"stimulus":"<p>Choose a box,</p>","button_pressed":1,"trial_type":"html-button-response","trial_index":86,"time_elapsed":359095,"internal_node_id":"0.0-19.31-0.31"},{"rate":0.7499539954807004,"trial_type":"html-keyboard-response","trial_index":87,"time_elapsed":359096,"internal_node_id":"0.0-19.31-1.31"},{"rt":null,"stimulus":"<div style=\"background-color:#6dce98\"><h1 style=\"background-color:MediumSeaGreen\" >You won a prize! Well done!</h1><div style=\"background-color:#6dce98\"><h1 style=\"background-color:MediumSeaGreen\" >Only 2 left to go!</h1><img id=\"box\" src=\"img/prizes/choc.png\"></img><img id=\"box\" src=\"img/empty/greenopenbox.png\"></img></div>","key_press":null,"trial_type":"html-keyboard-response","trial_index":87,"time_elapsed":360600,"internal_node_id":"0.0-19.31-1.31"},{"rt":800.9999999999418,"stimulus":"<p>Choose a box,</p>","button_pressed":1,"trial_type":"html-button-response","trial_index":88,"time_elapsed":361406,"internal_node_id":"0.0-19.32-0.32"},{"rate":0.7499539954807004,"trial_type":"html-keyboard-response","trial_index":89,"time_elapsed":361406,"internal_node_id":"0.0-19.32-1.32"},{"rt":null,"stimulus":"<div style=\"background-color:#6dce98\"><h1 style=\"background-color:MediumSeaGreen\" >You won a prize! Well done!</h1><div style=\"background-color:#6dce98\"><h1 style=\"background-color:MediumSeaGreen\" >Only 1 left to go!</h1><img id=\"box\" src=\"img/prizes/beachball.png\"></img><img id=\"box\" src=\"img/empty/greenopenbox.png\"></img></div>","key_press":null,"trial_type":"html-keyboard-response","trial_index":89,"time_elapsed":362911,"internal_node_id":"0.0-19.32-1.32"},{"rt":839.9999999999418,"stimulus":"<p>Choose a box,</p>","button_pressed":1,"trial_type":"html-button-response","trial_index":90,"time_elapsed":363755,"internal_node_id":"0.0-19.33-0.33"},{"rate":0.7499539954807004,"trial_type":"html-keyboard-response","trial_index":91,"time_elapsed":363755,"internal_node_id":"0.0-19.33-1.33"},{"rt":null,"stimulus":"<div style=\"background-color:#6dce98\"><h1 style=\"background-color:MediumSeaGreen\" >You won a prize! Well done!</h1><div style=\"background-color:#6dce98\"><h1 style=\"background-color:MediumSeaGreen\" >Only 0 left to go!</h1><img id=\"box\" src=\"img/prizes/ring.png\"></img><img id=\"box\" src=\"img/empty/greenopenbox.png\"></img></div>","key_press":null,"trial_type":"html-keyboard-response","trial_index":91,"time_elapsed":365260,"internal_node_id":"0.0-19.33-1.33"},{"rt":46622.99999999994,"responses":"{\"Q0\":\"It was very long but it was fun\",\"Q1\":\"I chose the boxes where I saw success\"}","trial_type":"survey-text","trial_index":92,"time_elapsed":411901,"internal_node_id":"0.0-20.0"}]