[{"view_history":"[{\"page_index\":0,\"viewing_time\":28250.10000000475},{\"page_index\":1,\"viewing_time\":15938.154999981634},{\"page_index\":2,\"viewing_time\":16581.969999999274},{\"page_index\":3,\"viewing_time\":15207.125000015367},{\"page_index\":4,\"viewing_time\":8350.734999985434},{\"page_index\":5,\"viewing_time\":18311.83500000043}]","rt":102646.07499999693,"trial_type":"instructions","trial_index":0,"time_elapsed":102650,"internal_node_id":"0.0-0.0"},{"rt":10151.41500000027,"responses":"{\"Q0\":\"Yes\",\"Q1\":\"Yes\",\"Q2\":\"Yes\"}","question_order":"[0,1,2]","trial_type":"survey-multi-choice","trial_index":1,"time_elapsed":112809,"internal_node_id":"0.0-1.0-0.0"},{"rt":11723.88000000501,"responses":"{\"Q0\":\"Yes\",\"Q1\":\"Yes\",\"Q2\":\"Yes\"}","question_order":"[0,1,2]","trial_type":"survey-multi-choice","trial_index":2,"time_elapsed":124538,"internal_node_id":"0.0-2.0-0.0"},{"rt":8330.975000018952,"responses":"{\"Q0\":\"5e5bd71ee0777c3bbe5b108c\"}","trial_type":"survey-text","trial_index":3,"time_elapsed":132883,"internal_node_id":"0.0-3.0"},{"rt":6075.649999984307,"responses":"{\"Q0\":\"Male\",\"Q1\":\"45-54\"}","question_order":"[0,1]","trial_type":"survey-multi-choice","trial_index":4,"time_elapsed":138963,"internal_node_id":"0.0-4.0"},{"rt":5725.370000000112,"responses":"{\"Q0\":\"\"}","trial_type":"survey-text","trial_index":5,"time_elapsed":144692,"internal_node_id":"0.0-5.0"},{"view_history":"[{\"page_index\":0,\"viewing_time\":5389.794999995502}]","rt":5390.559999999823,"trial_type":"instructions","trial_index":6,"time_elapsed":150084,"internal_node_id":"0.0-6.0"},{"rt":25095.434999995632,"responses":"{\"Interested\":3,\"Distressed\":0,\"Excited\":2,\"Upset\":1}","question_order":"[0,1,2,3]","trial_type":"survey-likert","trial_index":7,"time_elapsed":175183,"internal_node_id":"0.0-7.0"},{"rt":16696.1650000012,"responses":"{\"Strong\":2,\"Guilty\":0,\"Scared\":1,\"Hostile\":0}","question_order":"[0,1,2,3]","trial_type":"survey-likert","trial_index":8,"time_elapsed":191882,"internal_node_id":"0.0-8.0"},{"rt":23790.910000010626,"responses":"{\"Enthusiastic\":0,\"Proud\":1,\"Irritable\":0,\"Alert\":1}","question_order":"[0,1,2,3]","trial_type":"survey-likert","trial_index":9,"time_elapsed":215675,"internal_node_id":"0.0-9.0"},{"rt":13516.340000001946,"responses":"{\"Ashamed\":0,\"Inspired\":0,\"Nervous\":1,\"Determined\":2}","question_order":"[0,1,2,3]","trial_type":"survey-likert","trial_index":10,"time_elapsed":229197,"internal_node_id":"0.0-10.0"},{"rt":14568.699999974342,"responses":"{\"Attentive\":2,\"Jittery\":0,\"Active\":1,\"Afraid\":1}","question_order":"[0,1,2,3]","trial_type":"survey-likert","trial_index":11,"time_elapsed":243768,"internal_node_id":"0.0-11.0"},{"rt":17495.98499998683,"responses":"{\"Q0\":0,\"Q1\":0,\"Q2\":0,\"Q3\":0}","question_order":"[0,1,2,3]","trial_type":"survey-likert","trial_index":12,"time_elapsed":261267,"internal_node_id":"0.0-12.0"},{"rt":16404.610000026878,"responses":"{\"Q0\":0,\"Q1\":0,\"Q2\":0,\"Q3\":0}","question_order":"[0,1,2,3]","trial_type":"survey-likert","trial_index":13,"time_elapsed":277676,"internal_node_id":"0.0-13.0"},{"rt":17479.66500002076,"responses":"{\"Q0\":0,\"Q1\":0,\"Q2\":0,\"Q3\":0}","question_order":"[0,1,2,3]","trial_type":"survey-likert","trial_index":14,"time_elapsed":295160,"internal_node_id":"0.0-14.0"},{"rt":14393.624999996973,"responses":"{\"Q0\":0,\"Q1\":0,\"Q2\":1}","question_order":"[0,1,2]","trial_type":"survey-likert","trial_index":15,"time_elapsed":309557,"internal_node_id":"0.0-15.0"},{"view_history":"[{\"page_index\":0,\"viewing_time\":3197.889999981271},{\"page_index\":1,\"viewing_time\":12828.555000014603},{\"page_index\":2,\"viewing_time\":11685.004999977536}]","rt":27714.429999992717,"trial_type":"instructions","trial_index":16,"time_elapsed":337279,"internal_node_id":"0.0-16.0"},{"rt":1997.5500000000466,"stimulus":"<p>Choose a box,</p>","button_pressed":1,"trial_type":"html-button-response","trial_index":17,"time_elapsed":339280,"internal_node_id":"0.0-17.0-0.0"},{"rate":0.33531539676119887,"trial_type":"html-keyboard-response","trial_index":18,"time_elapsed":339282,"internal_node_id":"0.0-17.0-1.0"},{"rt":null,"stimulus":"<div style=\"background-color:#ff7157\"><h1 style=\"background-color:Tomato\">Bad luck! There was no prize in the box!</h1><h1 style=\"background-color:Tomato\">Remember, you need to keep going until you have 20 prizes!</h1><img id=\"box\" src=\"img/sad/greenopenboxsadthumb.png\"></img></div>","key_press":null,"trial_type":"html-keyboard-response","trial_index":18,"time_elapsed":340786,"internal_node_id":"0.0-17.0-1.0"},{"rt":1880.5299999949057,"stimulus":"<p>Choose a box,</p>","button_pressed":1,"trial_type":"html-button-response","trial_index":19,"time_elapsed":342670,"internal_node_id":"0.0-17.0-0.1"},{"rate":0.33531539676119887,"trial_type":"html-keyboard-response","trial_index":20,"time_elapsed":342670,"internal_node_id":"0.0-17.0-1.1"},{"rt":null,"stimulus":"<div style=\"background-color:#ff7157\"><h1 style=\"background-color:Tomato\">Bad luck! There was no prize in the box!</h1><h1 style=\"background-color:Tomato\">Remember, you need to keep going until you have 20 prizes!</h1><img id=\"box\" src=\"img/sad/greenopenboxsadthumb.png\"></img></div>","key_press":null,"trial_type":"html-keyboard-response","trial_index":20,"time_elapsed":344173,"internal_node_id":"0.0-17.0-1.1"},{"rt":2244.4650000252295,"stimulus":"<p>Choose a box,</p>","button_pressed":0,"trial_type":"html-button-response","trial_index":21,"time_elapsed":346419,"internal_node_id":"0.0-17.0-0.2"},{"rate":0.23482825096666518,"trial_type":"html-keyboard-response","trial_index":22,"time_elapsed":346420,"internal_node_id":"0.0-17.0-1.2"},{"rt":null,"stimulus":"<div style=\"background-color:#ff7157\"><h1 style=\"background-color:Tomato\">Bad luck! There was no prize in the box!</h1><h1 style=\"background-color:Tomato\">Remember, you need to keep going until you have 20 prizes!</h1><img id=\"box\" src=\"img/sad/blueopenboxsadthumb.png\"></img></div>","key_press":null,"trial_type":"html-keyboard-response","trial_index":22,"time_elapsed":347923,"internal_node_id":"0.0-17.0-1.2"},{"view_history":"[{\"page_index\":0,\"viewing_time\":8357.459999999264}]","rt":8357.775000011316,"trial_type":"instructions","trial_index":23,"time_elapsed":356291,"internal_node_id":"0.0-18.0"},{"rt":1280.3549999953248,"stimulus":"<p>Choose a box,</p>","button_pressed":1,"trial_type":"html-button-response","trial_index":24,"time_elapsed":357573,"internal_node_id":"0.0-19.0-0.0"},{"rate":0.19980719142587422,"trial_type":"html-keyboard-response","trial_index":25,"time_elapsed":357574,"internal_node_id":"0.0-19.0-1.0"},{"rt":null,"stimulus":"<div style=\"background-color:#6dce98\"><h1 style=\"background-color:MediumSeaGreen\" >You won a prize! Well done!</h1><div style=\"background-color:#6dce98\"><h1 style=\"background-color:MediumSeaGreen\" >Only 19 left to go!</h1><img id=\"box\" src=\"img/prizes/lolipop.png\"></img><img id=\"box\" src=\"img/empty/greenopenbox.png\"></img></div>","key_press":null,"trial_type":"html-keyboard-response","trial_index":25,"time_elapsed":359075,"internal_node_id":"0.0-19.0-1.0"},{"rt":1103.7849999847822,"stimulus":"<p>Choose a box,</p>","button_pressed":1,"trial_type":"html-button-response","trial_index":26,"time_elapsed":360183,"internal_node_id":"0.0-19.1-0.1"},{"rate":0.19980719142587422,"trial_type":"html-keyboard-response","trial_index":27,"time_elapsed":360183,"internal_node_id":"0.0-19.1-1.1"},{"rt":null,"stimulus":"<div style=\"background-color:#ff7157\"><h1 style=\"background-color:Tomato\">Bad luck! There was no prize in the box!</h1><h1 style=\"background-color:Tomato\">Remember, you need to keep going until you have 20 prizes!</h1><img id=\"box\" src=\"img/sad/greenopenboxsadthumb.png\"></img></div>","key_press":null,"trial_type":"html-keyboard-response","trial_index":27,"time_elapsed":361686,"internal_node_id":"0.0-19.1-1.1"},{"rt":2230.794999981299,"stimulus":"<p>Choose a box,</p>","button_pressed":1,"trial_type":"html-button-response","trial_index":28,"time_elapsed":363918,"internal_node_id":"0.0-19.2-0.2"},{"rate":0.19980719142587422,"trial_type":"html-keyboard-response","trial_index":29,"time_elapsed":363918,"internal_node_id":"0.0-19.2-1.2"},{"rt":null,"stimulus":"<div style=\"background-color:#ff7157\"><h1 style=\"background-color:Tomato\">Bad luck! There was no prize in the box!</h1><h1 style=\"background-color:Tomato\">Remember, you need to keep going until you have 20 prizes!</h1><img id=\"box\" src=\"img/sad/greenopenboxsadthumb.png\"></img></div>","key_press":null,"trial_type":"html-keyboard-response","trial_index":29,"time_elapsed":365427,"internal_node_id":"0.0-19.2-1.2"},{"rt":822.5899999961257,"stimulus":"<p>Choose a box,</p>","button_pressed":2,"trial_type":"html-button-response","trial_index":30,"time_elapsed":366264,"internal_node_id":"0.0-19.3-0.3"},{"rate":0.5294622493067398,"trial_type":"html-keyboard-response","trial_index":31,"time_elapsed":366264,"internal_node_id":"0.0-19.3-1.3"},{"rt":null,"stimulus":"<div style=\"background-color:#6dce98\"><h1 style=\"background-color:MediumSeaGreen\" >You won a prize! Well done!</h1><div style=\"background-color:#6dce98\"><h1 style=\"background-color:MediumSeaGreen\" >Only 18 left to go!</h1><img id=\"box\" src=\"img/prizes/coins.png\"></img><img id=\"box\" src=\"img/empty/purpleopenbox.png\"></img></div>","key_press":null,"trial_type":"html-keyboard-response","trial_index":31,"time_elapsed":367767,"internal_node_id":"0.0-19.3-1.3"},{"rt":851.7749999882653,"stimulus":"<p>Choose a box,</p>","button_pressed":3,"trial_type":"html-button-response","trial_index":32,"time_elapsed":368620,"internal_node_id":"0.0-19.4-0.4"},{"rate":0.7576319405680316,"trial_type":"html-keyboard-response","trial_index":33,"time_elapsed":368621,"internal_node_id":"0.0-19.4-1.4"},{"rt":null,"stimulus":"<div style=\"background-color:#ff7157\"><h1 style=\"background-color:Tomato\">Bad luck! There was no prize in the box!</h1><h1 style=\"background-color:Tomato\">Remember, you need to keep going until you have 20 prizes!</h1><img id=\"box\" src=\"img/sad/redopenboxsadthumb.png\"></img></div>","key_press":null,"trial_type":"html-keyboard-response","trial_index":33,"time_elapsed":370122,"internal_node_id":"0.0-19.4-1.4"},{"rt":655.2399999927729,"stimulus":"<p>Choose a box,</p>","button_pressed":0,"trial_type":"html-button-response","trial_index":34,"time_elapsed":370779,"internal_node_id":"0.0-19.5-0.5"},{"rate":0.09436397738161856,"trial_type":"html-keyboard-response","trial_index":35,"time_elapsed":370780,"internal_node_id":"0.0-19.5-1.5"},{"rt":null,"stimulus":"<div style=\"background-color:#ff7157\"><h1 style=\"background-color:Tomato\">Bad luck! There was no prize in the box!</h1><h1 style=\"background-color:Tomato\">Remember, you need to keep going until you have 20 prizes!</h1><img id=\"box\" src=\"img/sad/blueopenboxsadthumb.png\"></img></div>","key_press":null,"trial_type":"html-keyboard-response","trial_index":35,"time_elapsed":372283,"internal_node_id":"0.0-19.5-1.5"},{"rt":430.5600000079721,"stimulus":"<p>Choose a box,</p>","button_pressed":1,"trial_type":"html-button-response","trial_index":36,"time_elapsed":372716,"internal_node_id":"0.0-19.6-0.6"},{"rate":0.19980719142587422,"trial_type":"html-keyboard-response","trial_index":37,"time_elapsed":372716,"internal_node_id":"0.0-19.6-1.6"},{"rt":null,"stimulus":"<div style=\"background-color:#ff7157\"><h1 style=\"background-color:Tomato\">Bad luck! There was no prize in the box!</h1><h1 style=\"background-color:Tomato\">Remember, you need to keep going until you have 20 prizes!</h1><img id=\"box\" src=\"img/sad/greenopenboxsadthumb.png\"></img></div>","key_press":null,"trial_type":"html-keyboard-response","trial_index":37,"time_elapsed":374219,"internal_node_id":"0.0-19.6-1.6"},{"rt":498.17999999504536,"stimulus":"<p>Choose a box,</p>","button_pressed":2,"trial_type":"html-button-response","trial_index":38,"time_elapsed":374718,"internal_node_id":"0.0-19.7-0.7"},{"rate":0.5294622493067398,"trial_type":"html-keyboard-response","trial_index":39,"time_elapsed":374719,"internal_node_id":"0.0-19.7-1.7"},{"rt":null,"stimulus":"<div style=\"background-color:#ff7157\"><h1 style=\"background-color:Tomato\">Bad luck! There was no prize in the box!</h1><h1 style=\"background-color:Tomato\">Remember, you need to keep going until you have 20 prizes!</h1><img id=\"box\" src=\"img/sad/purpleopenboxsadthumb.png\"></img></div>","key_press":null,"trial_type":"html-keyboard-response","trial_index":39,"time_elapsed":376222,"internal_node_id":"0.0-19.7-1.7"},{"rt":518.2400000048801,"stimulus":"<p>Choose a box,</p>","button_pressed":3,"trial_type":"html-button-response","trial_index":40,"time_elapsed":376742,"internal_node_id":"0.0-19.8-0.8"},{"rate":0.7576319405680316,"trial_type":"html-keyboard-response","trial_index":41,"time_elapsed":376742,"internal_node_id":"0.0-19.8-1.8"},{"rt":null,"stimulus":"<div style=\"background-color:#6dce98\"><h1 style=\"background-color:MediumSeaGreen\" >You won a prize! Well done!</h1><div style=\"background-color:#6dce98\"><h1 style=\"background-color:MediumSeaGreen\" >Only 17 left to go!</h1><img id=\"box\" src=\"img/prizes/yoyo.png\"></img><img id=\"box\" src=\"img/empty/redopenbox.png\"></img></div>","key_press":null,"trial_type":"html-keyboard-response","trial_index":41,"time_elapsed":378245,"internal_node_id":"0.0-19.8-1.8"},{"rt":1164.8700000077952,"stimulus":"<p>Choose a box,</p>","button_pressed":2,"trial_type":"html-button-response","trial_index":42,"time_elapsed":379412,"internal_node_id":"0.0-19.9-0.9"},{"rate":0.5294622493067398,"trial_type":"html-keyboard-response","trial_index":43,"time_elapsed":379412,"internal_node_id":"0.0-19.9-1.9"},{"rt":null,"stimulus":"<div style=\"background-color:#ff7157\"><h1 style=\"background-color:Tomato\">Bad luck! There was no prize in the box!</h1><h1 style=\"background-color:Tomato\">Remember, you need to keep going until you have 20 prizes!</h1><img id=\"box\" src=\"img/sad/purpleopenboxsadthumb.png\"></img></div>","key_press":null,"trial_type":"html-keyboard-response","trial_index":43,"time_elapsed":380915,"internal_node_id":"0.0-19.9-1.9"},{"rt":525.2000000036787,"stimulus":"<p>Choose a box,</p>","button_pressed":1,"trial_type":"html-button-response","trial_index":44,"time_elapsed":381442,"internal_node_id":"0.0-19.10-0.10"},{"rate":0.19980719142587422,"trial_type":"html-keyboard-response","trial_index":45,"time_elapsed":381442,"internal_node_id":"0.0-19.10-1.10"},{"rt":null,"stimulus":"<div style=\"background-color:#ff7157\"><h1 style=\"background-color:Tomato\">Bad luck! There was no prize in the box!</h1><h1 style=\"background-color:Tomato\">Remember, you need to keep going until you have 20 prizes!</h1><img id=\"box\" src=\"img/sad/greenopenboxsadthumb.png\"></img></div>","key_press":null,"trial_type":"html-keyboard-response","trial_index":45,"time_elapsed":382945,"internal_node_id":"0.0-19.10-1.10"},{"rt":567.1799999836367,"stimulus":"<p>Choose a box,</p>","button_pressed":0,"trial_type":"html-button-response","trial_index":46,"time_elapsed":383514,"internal_node_id":"0.0-19.11-0.11"},{"rate":0.09436397738161856,"trial_type":"html-keyboard-response","trial_index":47,"time_elapsed":383514,"internal_node_id":"0.0-19.11-1.11"},{"rt":null,"stimulus":"<div style=\"background-color:#6dce98\"><h1 style=\"background-color:MediumSeaGreen\" >You won a prize! Well done!</h1><div style=\"background-color:#6dce98\"><h1 style=\"background-color:MediumSeaGreen\" >Only 16 left to go!</h1><img id=\"box\" src=\"img/prizes/flowers.png\"></img><img id=\"box\" src=\"img/empty/blueopenbox.png\"></img></div>","key_press":null,"trial_type":"html-keyboard-response","trial_index":47,"time_elapsed":385016,"internal_node_id":"0.0-19.11-1.11"},{"rt":499.0500000130851,"stimulus":"<p>Choose a box,</p>","button_pressed":1,"trial_type":"html-button-response","trial_index":48,"time_elapsed":385517,"internal_node_id":"0.0-19.12-0.12"},{"rate":0.19980719142587422,"trial_type":"html-keyboard-response","trial_index":49,"time_elapsed":385517,"internal_node_id":"0.0-19.12-1.12"},{"rt":null,"stimulus":"<div style=\"background-color:#ff7157\"><h1 style=\"background-color:Tomato\">Bad luck! There was no prize in the box!</h1><h1 style=\"background-color:Tomato\">Remember, you need to keep going until you have 20 prizes!</h1><img id=\"box\" src=\"img/sad/greenopenboxsadthumb.png\"></img></div>","key_press":null,"trial_type":"html-keyboard-response","trial_index":49,"time_elapsed":387022,"internal_node_id":"0.0-19.12-1.12"},{"rt":533.2800000032876,"stimulus":"<p>Choose a box,</p>","button_pressed":2,"trial_type":"html-button-response","trial_index":50,"time_elapsed":387557,"internal_node_id":"0.0-19.13-0.13"},{"rate":0.5294622493067398,"trial_type":"html-keyboard-response","trial_index":51,"time_elapsed":387557,"internal_node_id":"0.0-19.13-1.13"},{"rt":null,"stimulus":"<div style=\"background-color:#ff7157\"><h1 style=\"background-color:Tomato\">Bad luck! There was no prize in the box!</h1><h1 style=\"background-color:Tomato\">Remember, you need to keep going until you have 20 prizes!</h1><img id=\"box\" src=\"img/sad/purpleopenboxsadthumb.png\"></img></div>","key_press":null,"trial_type":"html-keyboard-response","trial_index":51,"time_elapsed":389059,"internal_node_id":"0.0-19.13-1.13"},{"rt":626.22000000556,"stimulus":"<p>Choose a box,</p>","button_pressed":3,"trial_type":"html-button-response","trial_index":52,"time_elapsed":389687,"internal_node_id":"0.0-19.14-0.14"},{"rate":0.7576319405680316,"trial_type":"html-keyboard-response","trial_index":53,"time_elapsed":389687,"internal_node_id":"0.0-19.14-1.14"},{"rt":null,"stimulus":"<div style=\"background-color:#6dce98\"><h1 style=\"background-color:MediumSeaGreen\" >You won a prize! Well done!</h1><div style=\"background-color:#6dce98\"><h1 style=\"background-color:MediumSeaGreen\" >Only 15 left to go!</h1><img id=\"box\" src=\"img/prizes/lolipop.png\"></img><img id=\"box\" src=\"img/empty/redopenbox.png\"></img></div>","key_press":null,"trial_type":"html-keyboard-response","trial_index":53,"time_elapsed":391193,"internal_node_id":"0.0-19.14-1.14"},{"rt":614.8049999901559,"stimulus":"<p>Choose a box,</p>","button_pressed":3,"trial_type":"html-button-response","trial_index":54,"time_elapsed":391817,"internal_node_id":"0.0-19.15-0.15"},{"rate":0.7576319405680316,"trial_type":"html-keyboard-response","trial_index":55,"time_elapsed":391817,"internal_node_id":"0.0-19.15-1.15"},{"rt":null,"stimulus":"<div style=\"background-color:#6dce98\"><h1 style=\"background-color:MediumSeaGreen\" >You won a prize! Well done!</h1><div style=\"background-color:#6dce98\"><h1 style=\"background-color:MediumSeaGreen\" >Only 14 left to go!</h1><img id=\"box\" src=\"img/prizes/coins.png\"></img><img id=\"box\" src=\"img/empty/redopenbox.png\"></img></div>","key_press":null,"trial_type":"html-keyboard-response","trial_index":55,"time_elapsed":393320,"internal_node_id":"0.0-19.15-1.15"},{"rt":633.0899999884423,"stimulus":"<p>Choose a box,</p>","button_pressed":3,"trial_type":"html-button-response","trial_index":56,"time_elapsed":393954,"internal_node_id":"0.0-19.16-0.16"},{"rate":0.7576319405680316,"trial_type":"html-keyboard-response","trial_index":57,"time_elapsed":393955,"internal_node_id":"0.0-19.16-1.16"},{"rt":null,"stimulus":"<div style=\"background-color:#6dce98\"><h1 style=\"background-color:MediumSeaGreen\" >You won a prize! Well done!</h1><div style=\"background-color:#6dce98\"><h1 style=\"background-color:MediumSeaGreen\" >Only 13 left to go!</h1><img id=\"box\" src=\"img/prizes/lolipop.png\"></img><img id=\"box\" src=\"img/empty/redopenbox.png\"></img></div>","key_press":null,"trial_type":"html-keyboard-response","trial_index":57,"time_elapsed":395457,"internal_node_id":"0.0-19.16-1.16"},{"rt":619.5449999941047,"stimulus":"<p>Choose a box,</p>","button_pressed":3,"trial_type":"html-button-response","trial_index":58,"time_elapsed":396078,"internal_node_id":"0.0-19.17-0.17"},{"rate":0.7576319405680316,"trial_type":"html-keyboard-response","trial_index":59,"time_elapsed":396078,"internal_node_id":"0.0-19.17-1.17"},{"rt":null,"stimulus":"<div style=\"background-color:#6dce98\"><h1 style=\"background-color:MediumSeaGreen\" >You won a prize! Well done!</h1><div style=\"background-color:#6dce98\"><h1 style=\"background-color:MediumSeaGreen\" >Only 12 left to go!</h1><img id=\"box\" src=\"img/prizes/choc.png\"></img><img id=\"box\" src=\"img/empty/redopenbox.png\"></img></div>","key_press":null,"trial_type":"html-keyboard-response","trial_index":59,"time_elapsed":397582,"internal_node_id":"0.0-19.17-1.17"},{"rt":459.91499998490326,"stimulus":"<p>Choose a box,</p>","button_pressed":3,"trial_type":"html-button-response","trial_index":60,"time_elapsed":398043,"internal_node_id":"0.0-19.18-0.18"},{"rate":0.7576319405680316,"trial_type":"html-keyboard-response","trial_index":61,"time_elapsed":398043,"internal_node_id":"0.0-19.18-1.18"},{"rt":null,"stimulus":"<div style=\"background-color:#ff7157\"><h1 style=\"background-color:Tomato\">Bad luck! There was no prize in the box!</h1><h1 style=\"background-color:Tomato\">Remember, you need to keep going until you have 20 prizes!</h1><img id=\"box\" src=\"img/sad/redopenboxsadthumb.png\"></img></div>","key_press":null,"trial_type":"html-keyboard-response","trial_index":61,"time_elapsed":399545,"internal_node_id":"0.0-19.18-1.18"},{"rt":1238.615000009304,"stimulus":"<p>Choose a box,</p>","button_pressed":3,"trial_type":"html-button-response","trial_index":62,"time_elapsed":400788,"internal_node_id":"0.0-19.19-0.19"},{"rate":0.7576319405680316,"trial_type":"html-keyboard-response","trial_index":63,"time_elapsed":400788,"internal_node_id":"0.0-19.19-1.19"},{"rt":null,"stimulus":"<div style=\"background-color:#6dce98\"><h1 style=\"background-color:MediumSeaGreen\" >You won a prize! Well done!</h1><div style=\"background-color:#6dce98\"><h1 style=\"background-color:MediumSeaGreen\" >Only 11 left to go!</h1><img id=\"box\" src=\"img/prizes/bear.png\"></img><img id=\"box\" src=\"img/empty/redopenbox.png\"></img></div>","key_press":null,"trial_type":"html-keyboard-response","trial_index":63,"time_elapsed":402291,"internal_node_id":"0.0-19.19-1.19"},{"rt":393.84000000427477,"stimulus":"<p>Choose a box,</p>","button_pressed":3,"trial_type":"html-button-response","trial_index":64,"time_elapsed":402686,"internal_node_id":"0.0-19.20-0.20"},{"rate":0.7576319405680316,"trial_type":"html-keyboard-response","trial_index":65,"time_elapsed":402687,"internal_node_id":"0.0-19.20-1.20"},{"rt":null,"stimulus":"<div style=\"background-color:#6dce98\"><h1 style=\"background-color:MediumSeaGreen\" >You won a prize! Well done!</h1><div style=\"background-color:#6dce98\"><h1 style=\"background-color:MediumSeaGreen\" >Only 10 left to go!</h1><img id=\"box\" src=\"img/prizes/duck.png\"></img><img id=\"box\" src=\"img/empty/redopenbox.png\"></img></div>","key_press":null,"trial_type":"html-keyboard-response","trial_index":65,"time_elapsed":404192,"internal_node_id":"0.0-19.20-1.20"},{"rt":510.6699999887496,"stimulus":"<p>Choose a box,</p>","button_pressed":3,"trial_type":"html-button-response","trial_index":66,"time_elapsed":404704,"internal_node_id":"0.0-19.21-0.21"},{"rate":0.7576319405680316,"trial_type":"html-keyboard-response","trial_index":67,"time_elapsed":404704,"internal_node_id":"0.0-19.21-1.21"},{"rt":null,"stimulus":"<div style=\"background-color:#ff7157\"><h1 style=\"background-color:Tomato\">Bad luck! There was no prize in the box!</h1><h1 style=\"background-color:Tomato\">Remember, you need to keep going until you have 20 prizes!</h1><img id=\"box\" src=\"img/sad/redopenboxsadthumb.png\"></img></div>","key_press":null,"trial_type":"html-keyboard-response","trial_index":67,"time_elapsed":406209,"internal_node_id":"0.0-19.21-1.21"},{"rt":494.05000000842847,"stimulus":"<p>Choose a box,</p>","button_pressed":3,"trial_type":"html-button-response","trial_index":68,"time_elapsed":406704,"internal_node_id":"0.0-19.22-0.22"},{"rate":0.7576319405680316,"trial_type":"html-keyboard-response","trial_index":69,"time_elapsed":406704,"internal_node_id":"0.0-19.22-1.22"},{"rt":null,"stimulus":"<div style=\"background-color:#ff7157\"><h1 style=\"background-color:Tomato\">Bad luck! There was no prize in the box!</h1><h1 style=\"background-color:Tomato\">Remember, you need to keep going until you have 20 prizes!</h1><img id=\"box\" src=\"img/sad/redopenboxsadthumb.png\"></img></div>","key_press":null,"trial_type":"html-keyboard-response","trial_index":69,"time_elapsed":408207,"internal_node_id":"0.0-19.22-1.22"},{"rt":678.5099999979138,"stimulus":"<p>Choose a box,</p>","button_pressed":2,"trial_type":"html-button-response","trial_index":70,"time_elapsed":408887,"internal_node_id":"0.0-19.23-0.23"},{"rate":0.5294622493067398,"trial_type":"html-keyboard-response","trial_index":71,"time_elapsed":408887,"internal_node_id":"0.0-19.23-1.23"},{"rt":null,"stimulus":"<div style=\"background-color:#ff7157\"><h1 style=\"background-color:Tomato\">Bad luck! There was no prize in the box!</h1><h1 style=\"background-color:Tomato\">Remember, you need to keep going until you have 20 prizes!</h1><img id=\"box\" src=\"img/sad/purpleopenboxsadthumb.png\"></img></div>","key_press":null,"trial_type":"html-keyboard-response","trial_index":71,"time_elapsed":410389,"internal_node_id":"0.0-19.23-1.23"},{"rt":433.099999994738,"stimulus":"<p>Choose a box,</p>","button_pressed":1,"trial_type":"html-button-response","trial_index":72,"time_elapsed":410831,"internal_node_id":"0.0-19.24-0.24"},{"rate":0.19980719142587422,"trial_type":"html-keyboard-response","trial_index":73,"time_elapsed":410831,"internal_node_id":"0.0-19.24-1.24"},{"rt":null,"stimulus":"<div style=\"background-color:#ff7157\"><h1 style=\"background-color:Tomato\">Bad luck! There was no prize in the box!</h1><h1 style=\"background-color:Tomato\">Remember, you need to keep going until you have 20 prizes!</h1><img id=\"box\" src=\"img/sad/greenopenboxsadthumb.png\"></img></div>","key_press":null,"trial_type":"html-keyboard-response","trial_index":73,"time_elapsed":412334,"internal_node_id":"0.0-19.24-1.24"},{"rt":448.2049999933224,"stimulus":"<p>Choose a box,</p>","button_pressed":0,"trial_type":"html-button-response","trial_index":74,"time_elapsed":412783,"internal_node_id":"0.0-19.25-0.25"},{"rate":0.09436397738161856,"trial_type":"html-keyboard-response","trial_index":75,"time_elapsed":412784,"internal_node_id":"0.0-19.25-1.25"},{"rt":null,"stimulus":"<div style=\"background-color:#ff7157\"><h1 style=\"background-color:Tomato\">Bad luck! There was no prize in the box!</h1><h1 style=\"background-color:Tomato\">Remember, you need to keep going until you have 20 prizes!</h1><img id=\"box\" src=\"img/sad/blueopenboxsadthumb.png\"></img></div>","key_press":null,"trial_type":"html-keyboard-response","trial_index":75,"time_elapsed":414286,"internal_node_id":"0.0-19.25-1.25"},{"rt":659.6299999800976,"stimulus":"<p>Choose a box,</p>","button_pressed":1,"trial_type":"html-button-response","trial_index":76,"time_elapsed":414947,"internal_node_id":"0.0-19.26-0.26"},{"rate":0.19980719142587422,"trial_type":"html-keyboard-response","trial_index":77,"time_elapsed":414947,"internal_node_id":"0.0-19.26-1.26"},{"rt":null,"stimulus":"<div style=\"background-color:#ff7157\"><h1 style=\"background-color:Tomato\">Bad luck! There was no prize in the box!</h1><h1 style=\"background-color:Tomato\">Remember, you need to keep going until you have 20 prizes!</h1><img id=\"box\" src=\"img/sad/greenopenboxsadthumb.png\"></img></div>","key_press":null,"trial_type":"html-keyboard-response","trial_index":77,"time_elapsed":416450,"internal_node_id":"0.0-19.26-1.26"},{"rt":461.2450000131503,"stimulus":"<p>Choose a box,</p>","button_pressed":2,"trial_type":"html-button-response","trial_index":78,"time_elapsed":416914,"internal_node_id":"0.0-19.27-0.27"},{"rate":0.5294622493067398,"trial_type":"html-keyboard-response","trial_index":79,"time_elapsed":416915,"internal_node_id":"0.0-19.27-1.27"},{"rt":null,"stimulus":"<div style=\"background-color:#6dce98\"><h1 style=\"background-color:MediumSeaGreen\" >You won a prize! Well done!</h1><div style=\"background-color:#6dce98\"><h1 style=\"background-color:MediumSeaGreen\" >Only 9 left to go!</h1><img id=\"box\" src=\"img/prizes/beachball.png\"></img><img id=\"box\" src=\"img/empty/purpleopenbox.png\"></img></div>","key_press":null,"trial_type":"html-keyboard-response","trial_index":79,"time_elapsed":418443,"internal_node_id":"0.0-19.27-1.27"},{"rt":494.6500000078231,"stimulus":"<p>Choose a box,</p>","button_pressed":2,"trial_type":"html-button-response","trial_index":80,"time_elapsed":418939,"internal_node_id":"0.0-19.28-0.28"},{"rate":0.5294622493067398,"trial_type":"html-keyboard-response","trial_index":81,"time_elapsed":418939,"internal_node_id":"0.0-19.28-1.28"},{"rt":null,"stimulus":"<div style=\"background-color:#ff7157\"><h1 style=\"background-color:Tomato\">Bad luck! There was no prize in the box!</h1><h1 style=\"background-color:Tomato\">Remember, you need to keep going until you have 20 prizes!</h1><img id=\"box\" src=\"img/sad/purpleopenboxsadthumb.png\"></img></div>","key_press":null,"trial_type":"html-keyboard-response","trial_index":81,"time_elapsed":420447,"internal_node_id":"0.0-19.28-1.28"},{"rt":416.3800000096671,"stimulus":"<p>Choose a box,</p>","button_pressed":2,"trial_type":"html-button-response","trial_index":82,"time_elapsed":420865,"internal_node_id":"0.0-19.29-0.29"},{"rate":0.5294622493067398,"trial_type":"html-keyboard-response","trial_index":83,"time_elapsed":420865,"internal_node_id":"0.0-19.29-1.29"},{"rt":null,"stimulus":"<div style=\"background-color:#6dce98\"><h1 style=\"background-color:MediumSeaGreen\" >You won a prize! Well done!</h1><div style=\"background-color:#6dce98\"><h1 style=\"background-color:MediumSeaGreen\" >Only 8 left to go!</h1><img id=\"box\" src=\"img/prizes/yoyo.png\"></img><img id=\"box\" src=\"img/empty/purpleopenbox.png\"></img></div>","key_press":null,"trial_type":"html-keyboard-response","trial_index":83,"time_elapsed":422368,"internal_node_id":"0.0-19.29-1.29"},{"rt":431.71500001335517,"stimulus":"<p>Choose a box,</p>","button_pressed":2,"trial_type":"html-button-response","trial_index":84,"time_elapsed":422803,"internal_node_id":"0.0-19.30-0.30"},{"rate":0.5294622493067398,"trial_type":"html-keyboard-response","trial_index":85,"time_elapsed":422803,"internal_node_id":"0.0-19.30-1.30"},{"rt":null,"stimulus":"<div style=\"background-color:#ff7157\"><h1 style=\"background-color:Tomato\">Bad luck! There was no prize in the box!</h1><h1 style=\"background-color:Tomato\">Remember, you need to keep going until you have 20 prizes!</h1><img id=\"box\" src=\"img/sad/purpleopenboxsadthumb.png\"></img></div>","key_press":null,"trial_type":"html-keyboard-response","trial_index":85,"time_elapsed":424305,"internal_node_id":"0.0-19.30-1.30"},{"rt":447.02500000130385,"stimulus":"<p>Choose a box,</p>","button_pressed":2,"trial_type":"html-button-response","trial_index":86,"time_elapsed":424754,"internal_node_id":"0.0-19.31-0.31"},{"rate":0.5294622493067398,"trial_type":"html-keyboard-response","trial_index":87,"time_elapsed":424754,"internal_node_id":"0.0-19.31-1.31"},{"rt":null,"stimulus":"<div style=\"background-color:#6dce98\"><h1 style=\"background-color:MediumSeaGreen\" >You won a prize! Well done!</h1><div style=\"background-color:#6dce98\"><h1 style=\"background-color:MediumSeaGreen\" >Only 7 left to go!</h1><img id=\"box\" src=\"img/prizes/choc.png\"></img><img id=\"box\" src=\"img/empty/purpleopenbox.png\"></img></div>","key_press":null,"trial_type":"html-keyboard-response","trial_index":87,"time_elapsed":426257,"internal_node_id":"0.0-19.31-1.31"},{"rt":460.63499999581836,"stimulus":"<p>Choose a box,</p>","button_pressed":2,"trial_type":"html-button-response","trial_index":88,"time_elapsed":426721,"internal_node_id":"0.0-19.32-0.32"},{"rate":0.5294622493067398,"trial_type":"html-keyboard-response","trial_index":89,"time_elapsed":426721,"internal_node_id":"0.0-19.32-1.32"},{"rt":null,"stimulus":"<div style=\"background-color:#6dce98\"><h1 style=\"background-color:MediumSeaGreen\" >You won a prize! Well done!</h1><div style=\"background-color:#6dce98\"><h1 style=\"background-color:MediumSeaGreen\" >Only 6 left to go!</h1><img id=\"box\" src=\"img/prizes/bear.png\"></img><img id=\"box\" src=\"img/empty/purpleopenbox.png\"></img></div>","key_press":null,"trial_type":"html-keyboard-response","trial_index":89,"time_elapsed":428225,"internal_node_id":"0.0-19.32-1.32"},{"rt":408.3800000080373,"stimulus":"<p>Choose a box,</p>","button_pressed":2,"trial_type":"html-button-response","trial_index":90,"time_elapsed":428635,"internal_node_id":"0.0-19.33-0.33"},{"rate":0.5294622493067398,"trial_type":"html-keyboard-response","trial_index":91,"time_elapsed":428636,"internal_node_id":"0.0-19.33-1.33"},{"rt":null,"stimulus":"<div style=\"background-color:#6dce98\"><h1 style=\"background-color:MediumSeaGreen\" >You won a prize! Well done!</h1><div style=\"background-color:#6dce98\"><h1 style=\"background-color:MediumSeaGreen\" >Only 5 left to go!</h1><img id=\"box\" src=\"img/prizes/bear.png\"></img><img id=\"box\" src=\"img/empty/purpleopenbox.png\"></img></div>","key_press":null,"trial_type":"html-keyboard-response","trial_index":91,"time_elapsed":430139,"internal_node_id":"0.0-19.33-1.33"},{"rt":429.0449999971315,"stimulus":"<p>Choose a box,</p>","button_pressed":2,"trial_type":"html-button-response","trial_index":92,"time_elapsed":430570,"internal_node_id":"0.0-19.34-0.34"},{"rate":0.5294622493067398,"trial_type":"html-keyboard-response","trial_index":93,"time_elapsed":430570,"internal_node_id":"0.0-19.34-1.34"},{"rt":null,"stimulus":"<div style=\"background-color:#ff7157\"><h1 style=\"background-color:Tomato\">Bad luck! There was no prize in the box!</h1><h1 style=\"background-color:Tomato\">Remember, you need to keep going until you have 20 prizes!</h1><img id=\"box\" src=\"img/sad/purpleopenboxsadthumb.png\"></img></div>","key_press":null,"trial_type":"html-keyboard-response","trial_index":93,"time_elapsed":432076,"internal_node_id":"0.0-19.34-1.34"},{"rt":419.27499999292195,"stimulus":"<p>Choose a box,</p>","button_pressed":2,"trial_type":"html-button-response","trial_index":94,"time_elapsed":432498,"internal_node_id":"0.0-19.35-0.35"},{"rate":0.5294622493067398,"trial_type":"html-keyboard-response","trial_index":95,"time_elapsed":432498,"internal_node_id":"0.0-19.35-1.35"},{"rt":null,"stimulus":"<div style=\"background-color:#6dce98\"><h1 style=\"background-color:MediumSeaGreen\" >You won a prize! Well done!</h1><div style=\"background-color:#6dce98\"><h1 style=\"background-color:MediumSeaGreen\" >Only 4 left to go!</h1><img id=\"box\" src=\"img/prizes/coins.png\"></img><img id=\"box\" src=\"img/empty/purpleopenbox.png\"></img></div>","key_press":null,"trial_type":"html-keyboard-response","trial_index":95,"time_elapsed":434000,"internal_node_id":"0.0-19.35-1.35"},{"rt":446.9800000078976,"stimulus":"<p>Choose a box,</p>","button_pressed":2,"trial_type":"html-button-response","trial_index":96,"time_elapsed":434448,"internal_node_id":"0.0-19.36-0.36"},{"rate":0.5294622493067398,"trial_type":"html-keyboard-response","trial_index":97,"time_elapsed":434448,"internal_node_id":"0.0-19.36-1.36"},{"rt":null,"stimulus":"<div style=\"background-color:#ff7157\"><h1 style=\"background-color:Tomato\">Bad luck! There was no prize in the box!</h1><h1 style=\"background-color:Tomato\">Remember, you need to keep going until you have 20 prizes!</h1><img id=\"box\" src=\"img/sad/purpleopenboxsadthumb.png\"></img></div>","key_press":null,"trial_type":"html-keyboard-response","trial_index":97,"time_elapsed":435951,"internal_node_id":"0.0-19.36-1.36"},{"rt":444.9650000024121,"stimulus":"<p>Choose a box,</p>","button_pressed":2,"trial_type":"html-button-response","trial_index":98,"time_elapsed":436398,"internal_node_id":"0.0-19.37-0.37"},{"rate":0.5294622493067398,"trial_type":"html-keyboard-response","trial_index":99,"time_elapsed":436398,"internal_node_id":"0.0-19.37-1.37"},{"rt":null,"stimulus":"<div style=\"background-color:#ff7157\"><h1 style=\"background-color:Tomato\">Bad luck! There was no prize in the box!</h1><h1 style=\"background-color:Tomato\">Remember, you need to keep going until you have 20 prizes!</h1><img id=\"box\" src=\"img/sad/purpleopenboxsadthumb.png\"></img></div>","key_press":null,"trial_type":"html-keyboard-response","trial_index":99,"time_elapsed":437899,"internal_node_id":"0.0-19.37-1.37"},{"rt":528.6900000064634,"stimulus":"<p>Choose a box,</p>","button_pressed":2,"trial_type":"html-button-response","trial_index":100,"time_elapsed":438430,"internal_node_id":"0.0-19.38-0.38"},{"rate":0.5294622493067398,"trial_type":"html-keyboard-response","trial_index":101,"time_elapsed":438430,"internal_node_id":"0.0-19.38-1.38"},{"rt":null,"stimulus":"<div style=\"background-color:#6dce98\"><h1 style=\"background-color:MediumSeaGreen\" >You won a prize! Well done!</h1><div style=\"background-color:#6dce98\"><h1 style=\"background-color:MediumSeaGreen\" >Only 3 left to go!</h1><img id=\"box\" src=\"img/prizes/bear.png\"></img><img id=\"box\" src=\"img/empty/purpleopenbox.png\"></img></div>","key_press":null,"trial_type":"html-keyboard-response","trial_index":101,"time_elapsed":439939,"internal_node_id":"0.0-19.38-1.38"},{"rt":611.4400000078604,"stimulus":"<p>Choose a box,</p>","button_pressed":2,"trial_type":"html-button-response","trial_index":102,"time_elapsed":440553,"internal_node_id":"0.0-19.39-0.39"},{"rate":0.5294622493067398,"trial_type":"html-keyboard-response","trial_index":103,"time_elapsed":440553,"internal_node_id":"0.0-19.39-1.39"},{"rt":null,"stimulus":"<div style=\"background-color:#ff7157\"><h1 style=\"background-color:Tomato\">Bad luck! There was no prize in the box!</h1><h1 style=\"background-color:Tomato\">Remember, you need to keep going until you have 20 prizes!</h1><img id=\"box\" src=\"img/sad/purpleopenboxsadthumb.png\"></img></div>","key_press":null,"trial_type":"html-keyboard-response","trial_index":103,"time_elapsed":442056,"internal_node_id":"0.0-19.39-1.39"},{"rt":573.5399999830406,"stimulus":"<p>Choose a box,</p>","button_pressed":3,"trial_type":"html-button-response","trial_index":104,"time_elapsed":442631,"internal_node_id":"0.0-19.40-0.40"},{"rate":0.7576319405680316,"trial_type":"html-keyboard-response","trial_index":105,"time_elapsed":442631,"internal_node_id":"0.0-19.40-1.40"},{"rt":null,"stimulus":"<div style=\"background-color:#6dce98\"><h1 style=\"background-color:MediumSeaGreen\" >You won a prize! Well done!</h1><div style=\"background-color:#6dce98\"><h1 style=\"background-color:MediumSeaGreen\" >Only 2 left to go!</h1><img id=\"box\" src=\"img/prizes/duck.png\"></img><img id=\"box\" src=\"img/empty/redopenbox.png\"></img></div>","key_press":null,"trial_type":"html-keyboard-response","trial_index":105,"time_elapsed":444136,"internal_node_id":"0.0-19.40-1.40"},{"rt":615.2700000093319,"stimulus":"<p>Choose a box,</p>","button_pressed":2,"trial_type":"html-button-response","trial_index":106,"time_elapsed":444754,"internal_node_id":"0.0-19.41-0.41"},{"rate":0.5294622493067398,"trial_type":"html-keyboard-response","trial_index":107,"time_elapsed":444754,"internal_node_id":"0.0-19.41-1.41"},{"rt":null,"stimulus":"<div style=\"background-color:#6dce98\"><h1 style=\"background-color:MediumSeaGreen\" >You won a prize! Well done!</h1><div style=\"background-color:#6dce98\"><h1 style=\"background-color:MediumSeaGreen\" >Only 1 left to go!</h1><img id=\"box\" src=\"img/prizes/beachball.png\"></img><img id=\"box\" src=\"img/empty/purpleopenbox.png\"></img></div>","key_press":null,"trial_type":"html-keyboard-response","trial_index":107,"time_elapsed":446256,"internal_node_id":"0.0-19.41-1.41"},{"rt":575.1450000097975,"stimulus":"<p>Choose a box,</p>","button_pressed":3,"trial_type":"html-button-response","trial_index":108,"time_elapsed":446837,"internal_node_id":"0.0-19.42-0.42"},{"rate":0.7576319405680316,"trial_type":"html-keyboard-response","trial_index":109,"time_elapsed":446838,"internal_node_id":"0.0-19.42-1.42"},{"rt":null,"stimulus":"<div style=\"background-color:#ff7157\"><h1 style=\"background-color:Tomato\">Bad luck! There was no prize in the box!</h1><h1 style=\"background-color:Tomato\">Remember, you need to keep going until you have 20 prizes!</h1><img id=\"box\" src=\"img/sad/redopenboxsadthumb.png\"></img></div>","key_press":null,"trial_type":"html-keyboard-response","trial_index":109,"time_elapsed":448340,"internal_node_id":"0.0-19.42-1.42"},{"rt":430.6700000015553,"stimulus":"<p>Choose a box,</p>","button_pressed":2,"trial_type":"html-button-response","trial_index":110,"time_elapsed":448774,"internal_node_id":"0.0-19.43-0.43"},{"rate":0.5294622493067398,"trial_type":"html-keyboard-response","trial_index":111,"time_elapsed":448774,"internal_node_id":"0.0-19.43-1.43"},{"rt":null,"stimulus":"<div style=\"background-color:#6dce98\"><h1 style=\"background-color:MediumSeaGreen\" >You won a prize! Well done!</h1><div style=\"background-color:#6dce98\"><h1 style=\"background-color:MediumSeaGreen\" >Only 0 left to go!</h1><img id=\"box\" src=\"img/prizes/coins.png\"></img><img id=\"box\" src=\"img/empty/purpleopenbox.png\"></img></div>","key_press":null,"trial_type":"html-keyboard-response","trial_index":111,"time_elapsed":450277,"internal_node_id":"0.0-19.43-1.43"},{"rt":185700.67500000005,"responses":"{\"Q0\":\"I don't know\",\"Q1\":\"At first by color, but then i was choosing the boxes that where giving the most prizes \"}","trial_type":"survey-text","trial_index":112,"time_elapsed":636004,"internal_node_id":"0.0-20.0"}]