[{"view_history":"[{\"page_index\":0,\"viewing_time\":10131.900000000314},{\"page_index\":1,\"viewing_time\":5627.800000000207},{\"page_index\":2,\"viewing_time\":1912.5999999996566},{\"page_index\":3,\"viewing_time\":1954.4999999998254},{\"page_index\":4,\"viewing_time\":1774.9999999996362},{\"page_index\":3,\"viewing_time\":2642.4999999999272},{\"page_index\":2,\"viewing_time\":15744.800000000396},{\"page_index\":3,\"viewing_time\":14322.09999999941},{\"page_index\":4,\"viewing_time\":3077.500000001237},{\"page_index\":5,\"viewing_time\":1631.4999999995052},{\"page_index\":4,\"viewing_time\":2493.5999999997875},{\"page_index\":5,\"viewing_time\":12020.500000000538}]","rt":73347.90000000066,"trial_type":"instructions","trial_index":0,"time_elapsed":73355,"internal_node_id":"0.0-0.0"},{"rt":7352.999999999156,"responses":"{\"Q0\":\"Yes\",\"Q1\":\"Yes\",\"Q2\":\"Yes\"}","question_order":"[0,1,2]","trial_type":"survey-multi-choice","trial_index":1,"time_elapsed":80727,"internal_node_id":"0.0-1.0-0.0"},{"rt":9951.500000001033,"responses":"{\"Q0\":\"Yes\",\"Q1\":\"Yes\",\"Q2\":\"Yes\"}","question_order":"[0,1,2]","trial_type":"survey-multi-choice","trial_index":2,"time_elapsed":90697,"internal_node_id":"0.0-2.0-0.0"},{"rt":33578.199999999924,"responses":"{\"Q0\":\"5ea82e44c7977b22a50d7e0a\"}","trial_type":"survey-text","trial_index":3,"time_elapsed":124299,"internal_node_id":"0.0-3.0"},{"rt":4979.599999998754,"responses":"{\"Q0\":\"Male\",\"Q1\":\"18-25\"}","question_order":"[0,1]","trial_type":"survey-multi-choice","trial_index":4,"time_elapsed":129289,"internal_node_id":"0.0-4.0"},{"rt":6420.700000000579,"responses":"{\"Q0\":\"\"}","trial_type":"survey-text","trial_index":5,"time_elapsed":135730,"internal_node_id":"0.0-5.0"},{"view_history":"[{\"page_index\":0,\"viewing_time\":11266.20000000004}]","rt":11278.70000000074,"trial_type":"instructions","trial_index":6,"time_elapsed":147013,"internal_node_id":"0.0-6.0"},{"rt":17905.800000000454,"responses":"{\"Interested\":0,\"Distressed\":1,\"Excited\":0,\"Upset\":1}","question_order":"[0,1,2,3]","trial_type":"survey-likert","trial_index":7,"time_elapsed":164970,"internal_node_id":"0.0-7.0"},{"rt":15835.899999998219,"responses":"{\"Strong\":0,\"Guilty\":2,\"Scared\":2,\"Hostile\":1}","question_order":"[0,1,2,3]","trial_type":"survey-likert","trial_index":8,"time_elapsed":180823,"internal_node_id":"0.0-8.0"},{"rt":11679.799999998068,"responses":"{\"Enthusiastic\":1,\"Proud\":0,\"Irritable\":3,\"Alert\":1}","question_order":"[0,1,2,3]","trial_type":"survey-likert","trial_index":9,"time_elapsed":192520,"internal_node_id":"0.0-9.0"},{"rt":8726.800000000338,"responses":"{\"Ashamed\":4,\"Inspired\":0,\"Nervous\":3,\"Determined\":0}","question_order":"[0,1,2,3]","trial_type":"survey-likert","trial_index":10,"time_elapsed":201266,"internal_node_id":"0.0-10.0"},{"rt":10613.100000002305,"responses":"{\"Attentive\":0,\"Jittery\":3,\"Active\":1,\"Afraid\":4}","question_order":"[0,1,2,3]","trial_type":"survey-likert","trial_index":11,"time_elapsed":211897,"internal_node_id":"0.0-11.0"},{"rt":17968.09999999823,"responses":"{\"Q0\":2,\"Q1\":3,\"Q2\":3,\"Q3\":3}","question_order":"[0,1,2,3]","trial_type":"survey-likert","trial_index":12,"time_elapsed":229880,"internal_node_id":"0.0-12.0"},{"rt":21193.599999998696,"responses":"{\"Q0\":1,\"Q1\":3,\"Q2\":0,\"Q3\":1}","question_order":"[0,1,2,3]","trial_type":"survey-likert","trial_index":13,"time_elapsed":251089,"internal_node_id":"0.0-13.0"},{"rt":13590.100000001257,"responses":"{\"Q0\":2,\"Q1\":2,\"Q2\":3,\"Q3\":1}","question_order":"[0,1,2,3]","trial_type":"survey-likert","trial_index":14,"time_elapsed":264696,"internal_node_id":"0.0-14.0"},{"rt":8634.099999999278,"responses":"{\"Q0\":2,\"Q1\":2,\"Q2\":1}","question_order":"[0,1,2]","trial_type":"survey-likert","trial_index":15,"time_elapsed":273347,"internal_node_id":"0.0-15.0"},{"view_history":"[{\"page_index\":0,\"viewing_time\":4331.099999999453},{\"page_index\":1,\"viewing_time\":7420.999999998428},{\"page_index\":2,\"viewing_time\":8244.700000002922}]","rt":19999.800000001444,"trial_type":"instructions","trial_index":16,"time_elapsed":293383,"internal_node_id":"0.0-16.0"},{"rt":2298.0999999999767,"stimulus":"<p>Choose a box,</p>","button_pressed":1,"trial_type":"html-button-response","trial_index":17,"time_elapsed":295712,"internal_node_id":"0.0-17.0-0.0"},{"rate":0.7790653068661336,"trial_type":"html-keyboard-response","trial_index":18,"time_elapsed":295714,"internal_node_id":"0.0-17.0-1.0"},{"rt":null,"stimulus":"<div style=\"background-color:#ff7157\"><h1 style=\"background-color:Tomato\">Bad luck! There was no prize in the box!</h1><h1 style=\"background-color:Tomato\">Remember, you need to keep going until you have 20 prizes!</h1><img id=\"box\" src=\"img/sad/greenopenboxsadthumb.png\"></img></div>","key_press":null,"trial_type":"html-keyboard-response","trial_index":18,"time_elapsed":297229,"internal_node_id":"0.0-17.0-1.0"},{"rt":2572.2999999998137,"stimulus":"<p>Choose a box,</p>","button_pressed":1,"trial_type":"html-button-response","trial_index":19,"time_elapsed":299819,"internal_node_id":"0.0-17.0-0.1"},{"rate":0.7790653068661336,"trial_type":"html-keyboard-response","trial_index":20,"time_elapsed":299821,"internal_node_id":"0.0-17.0-1.1"},{"rt":null,"stimulus":"<div style=\"background-color:#6dce98\"><h1 style=\"background-color:MediumSeaGreen\" >You won a prize! Well done!</h1><div style=\"background-color:#6dce98\"><h1 style=\"background-color:MediumSeaGreen\" >Only 19 left to go!</h1><img id=\"box\" src=\"img/prizes/beachball.png\"></img><img id=\"box\" src=\"img/empty/greenopenbox.png\"></img></div>","key_press":null,"trial_type":"html-keyboard-response","trial_index":20,"time_elapsed":301333,"internal_node_id":"0.0-17.0-1.1"},{"rt":2366.699999998673,"stimulus":"<p>Choose a box,</p>","button_pressed":1,"trial_type":"html-button-response","trial_index":21,"time_elapsed":303725,"internal_node_id":"0.0-17.0-0.2"},{"rate":0.7790653068661336,"trial_type":"html-keyboard-response","trial_index":22,"time_elapsed":303728,"internal_node_id":"0.0-17.0-1.2"},{"rt":null,"stimulus":"<div style=\"background-color:#6dce98\"><h1 style=\"background-color:MediumSeaGreen\" >You won a prize! Well done!</h1><div style=\"background-color:#6dce98\"><h1 style=\"background-color:MediumSeaGreen\" >Only 18 left to go!</h1><img id=\"box\" src=\"img/prizes/coins.png\"></img><img id=\"box\" src=\"img/empty/greenopenbox.png\"></img></div>","key_press":null,"trial_type":"html-keyboard-response","trial_index":22,"time_elapsed":305246,"internal_node_id":"0.0-17.0-1.2"},{"view_history":"[{\"page_index\":0,\"viewing_time\":5290.600000000268}]","rt":5295.699999998789,"trial_type":"instructions","trial_index":23,"time_elapsed":310574,"internal_node_id":"0.0-18.0"},{"rt":1881.9000000003143,"stimulus":"<p>Choose a box,</p>","button_pressed":1,"trial_type":"html-button-response","trial_index":24,"time_elapsed":312467,"internal_node_id":"0.0-19.0-0.0"},{"rate":0.8348471150508167,"trial_type":"html-keyboard-response","trial_index":25,"time_elapsed":312470,"internal_node_id":"0.0-19.0-1.0"},{"rt":null,"stimulus":"<div style=\"background-color:#6dce98\"><h1 style=\"background-color:MediumSeaGreen\" >You won a prize! Well done!</h1><div style=\"background-color:#6dce98\"><h1 style=\"background-color:MediumSeaGreen\" >Only 19 left to go!</h1><img id=\"box\" src=\"img/prizes/choc.png\"></img><img id=\"box\" src=\"img/empty/greenopenbox.png\"></img></div>","key_press":null,"trial_type":"html-keyboard-response","trial_index":25,"time_elapsed":313981,"internal_node_id":"0.0-19.0-1.0"},{"rt":1408.2999999991152,"stimulus":"<p>Choose a box,</p>","button_pressed":1,"trial_type":"html-button-response","trial_index":26,"time_elapsed":315429,"internal_node_id":"0.0-19.1-0.1"},{"rate":0.8348471150508167,"trial_type":"html-keyboard-response","trial_index":27,"time_elapsed":315432,"internal_node_id":"0.0-19.1-1.1"},{"rt":null,"stimulus":"<div style=\"background-color:#ff7157\"><h1 style=\"background-color:Tomato\">Bad luck! There was no prize in the box!</h1><h1 style=\"background-color:Tomato\">Remember, you need to keep going until you have 20 prizes!</h1><img id=\"box\" src=\"img/sad/greenopenboxsadthumb.png\"></img></div>","key_press":null,"trial_type":"html-keyboard-response","trial_index":27,"time_elapsed":316944,"internal_node_id":"0.0-19.1-1.1"},{"rt":2159.199999998207,"stimulus":"<p>Choose a box,</p>","button_pressed":0,"trial_type":"html-button-response","trial_index":28,"time_elapsed":319136,"internal_node_id":"0.0-19.2-0.2"},{"rate":0.6639161819994707,"trial_type":"html-keyboard-response","trial_index":29,"time_elapsed":319140,"internal_node_id":"0.0-19.2-1.2"},{"rt":null,"stimulus":"<div style=\"background-color:#6dce98\"><h1 style=\"background-color:MediumSeaGreen\" >You won a prize! Well done!</h1><div style=\"background-color:#6dce98\"><h1 style=\"background-color:MediumSeaGreen\" >Only 18 left to go!</h1><img id=\"box\" src=\"img/prizes/duck.png\"></img><img id=\"box\" src=\"img/empty/blueopenbox.png\"></img></div>","key_press":null,"trial_type":"html-keyboard-response","trial_index":29,"time_elapsed":320648,"internal_node_id":"0.0-19.2-1.2"},{"rt":680.000000000291,"stimulus":"<p>Choose a box,</p>","button_pressed":3,"trial_type":"html-button-response","trial_index":30,"time_elapsed":321350,"internal_node_id":"0.0-19.3-0.3"},{"rate":0.4610580383034184,"trial_type":"html-keyboard-response","trial_index":31,"time_elapsed":321352,"internal_node_id":"0.0-19.3-1.3"},{"rt":null,"stimulus":"<div style=\"background-color:#6dce98\"><h1 style=\"background-color:MediumSeaGreen\" >You won a prize! Well done!</h1><div style=\"background-color:#6dce98\"><h1 style=\"background-color:MediumSeaGreen\" >Only 17 left to go!</h1><img id=\"box\" src=\"img/prizes/bear.png\"></img><img id=\"box\" src=\"img/empty/redopenbox.png\"></img></div>","key_press":null,"trial_type":"html-keyboard-response","trial_index":31,"time_elapsed":322866,"internal_node_id":"0.0-19.3-1.3"},{"rt":668.3000000012107,"stimulus":"<p>Choose a box,</p>","button_pressed":1,"trial_type":"html-button-response","trial_index":32,"time_elapsed":323567,"internal_node_id":"0.0-19.4-0.4"},{"rate":0.8348471150508167,"trial_type":"html-keyboard-response","trial_index":33,"time_elapsed":323568,"internal_node_id":"0.0-19.4-1.4"},{"rt":null,"stimulus":"<div style=\"background-color:#6dce98\"><h1 style=\"background-color:MediumSeaGreen\" >You won a prize! Well done!</h1><div style=\"background-color:#6dce98\"><h1 style=\"background-color:MediumSeaGreen\" >Only 16 left to go!</h1><img id=\"box\" src=\"img/prizes/duck.png\"></img><img id=\"box\" src=\"img/empty/greenopenbox.png\"></img></div>","key_press":null,"trial_type":"html-keyboard-response","trial_index":33,"time_elapsed":325093,"internal_node_id":"0.0-19.4-1.4"},{"rt":748.4000000003725,"stimulus":"<p>Choose a box,</p>","button_pressed":1,"trial_type":"html-button-response","trial_index":34,"time_elapsed":325866,"internal_node_id":"0.0-19.5-0.5"},{"rate":0.8348471150508167,"trial_type":"html-keyboard-response","trial_index":35,"time_elapsed":325867,"internal_node_id":"0.0-19.5-1.5"},{"rt":null,"stimulus":"<div style=\"background-color:#6dce98\"><h1 style=\"background-color:MediumSeaGreen\" >You won a prize! Well done!</h1><div style=\"background-color:#6dce98\"><h1 style=\"background-color:MediumSeaGreen\" >Only 15 left to go!</h1><img id=\"box\" src=\"img/prizes/duck.png\"></img><img id=\"box\" src=\"img/empty/greenopenbox.png\"></img></div>","key_press":null,"trial_type":"html-keyboard-response","trial_index":35,"time_elapsed":327381,"internal_node_id":"0.0-19.5-1.5"},{"rt":927.1999999982654,"stimulus":"<p>Choose a box,</p>","button_pressed":0,"trial_type":"html-button-response","trial_index":36,"time_elapsed":328328,"internal_node_id":"0.0-19.6-0.6"},{"rate":0.6639161819994707,"trial_type":"html-keyboard-response","trial_index":37,"time_elapsed":328330,"internal_node_id":"0.0-19.6-1.6"},{"rt":null,"stimulus":"<div style=\"background-color:#6dce98\"><h1 style=\"background-color:MediumSeaGreen\" >You won a prize! Well done!</h1><div style=\"background-color:#6dce98\"><h1 style=\"background-color:MediumSeaGreen\" >Only 14 left to go!</h1><img id=\"box\" src=\"img/prizes/bear.png\"></img><img id=\"box\" src=\"img/empty/blueopenbox.png\"></img></div>","key_press":null,"trial_type":"html-keyboard-response","trial_index":37,"time_elapsed":329845,"internal_node_id":"0.0-19.6-1.6"},{"rt":828.6000000007334,"stimulus":"<p>Choose a box,</p>","button_pressed":2,"trial_type":"html-button-response","trial_index":38,"time_elapsed":330696,"internal_node_id":"0.0-19.7-0.7"},{"rate":0.18980950611566597,"trial_type":"html-keyboard-response","trial_index":39,"time_elapsed":330698,"internal_node_id":"0.0-19.7-1.7"},{"rt":null,"stimulus":"<div style=\"background-color:#ff7157\"><h1 style=\"background-color:Tomato\">Bad luck! There was no prize in the box!</h1><h1 style=\"background-color:Tomato\">Remember, you need to keep going until you have 20 prizes!</h1><img id=\"box\" src=\"img/sad/purpleopenboxsadthumb.png\"></img></div>","key_press":null,"trial_type":"html-keyboard-response","trial_index":39,"time_elapsed":332206,"internal_node_id":"0.0-19.7-1.7"},{"rt":20.400000001245644,"stimulus":"<p>Choose a box,</p>","button_pressed":3,"trial_type":"html-button-response","trial_index":40,"time_elapsed":332239,"internal_node_id":"0.0-19.8-0.8"},{"rate":0.4610580383034184,"trial_type":"html-keyboard-response","trial_index":41,"time_elapsed":332240,"internal_node_id":"0.0-19.8-1.8"},{"rt":null,"stimulus":"<div style=\"background-color:#ff7157\"><h1 style=\"background-color:Tomato\">Bad luck! There was no prize in the box!</h1><h1 style=\"background-color:Tomato\">Remember, you need to keep going until you have 20 prizes!</h1><img id=\"box\" src=\"img/sad/redopenboxsadthumb.png\"></img></div>","key_press":null,"trial_type":"html-keyboard-response","trial_index":41,"time_elapsed":333751,"internal_node_id":"0.0-19.8-1.8"},{"rt":1053.1000000010245,"stimulus":"<p>Choose a box,</p>","button_pressed":1,"trial_type":"html-button-response","trial_index":42,"time_elapsed":334823,"internal_node_id":"0.0-19.9-0.9"},{"rate":0.8348471150508167,"trial_type":"html-keyboard-response","trial_index":43,"time_elapsed":334824,"internal_node_id":"0.0-19.9-1.9"},{"rt":null,"stimulus":"<div style=\"background-color:#6dce98\"><h1 style=\"background-color:MediumSeaGreen\" >You won a prize! Well done!</h1><div style=\"background-color:#6dce98\"><h1 style=\"background-color:MediumSeaGreen\" >Only 13 left to go!</h1><img id=\"box\" src=\"img/prizes/bear.png\"></img><img id=\"box\" src=\"img/empty/greenopenbox.png\"></img></div>","key_press":null,"trial_type":"html-keyboard-response","trial_index":43,"time_elapsed":336343,"internal_node_id":"0.0-19.9-1.9"},{"rt":875.40000000078,"stimulus":"<p>Choose a box,</p>","button_pressed":1,"trial_type":"html-button-response","trial_index":44,"time_elapsed":337249,"internal_node_id":"0.0-19.10-0.10"},{"rate":0.8348471150508167,"trial_type":"html-keyboard-response","trial_index":45,"time_elapsed":337253,"internal_node_id":"0.0-19.10-1.10"},{"rt":null,"stimulus":"<div style=\"background-color:#6dce98\"><h1 style=\"background-color:MediumSeaGreen\" >You won a prize! Well done!</h1><div style=\"background-color:#6dce98\"><h1 style=\"background-color:MediumSeaGreen\" >Only 12 left to go!</h1><img id=\"box\" src=\"img/prizes/yoyo.png\"></img><img id=\"box\" src=\"img/empty/greenopenbox.png\"></img></div>","key_press":null,"trial_type":"html-keyboard-response","trial_index":45,"time_elapsed":338772,"internal_node_id":"0.0-19.10-1.10"},{"rt":4000.7000000004773,"stimulus":"<p>Choose a box,</p>","button_pressed":3,"trial_type":"html-button-response","trial_index":46,"time_elapsed":342811,"internal_node_id":"0.0-19.11-0.11"},{"rate":0.4610580383034184,"trial_type":"html-keyboard-response","trial_index":47,"time_elapsed":342814,"internal_node_id":"0.0-19.11-1.11"},{"rt":null,"stimulus":"<div style=\"background-color:#6dce98\"><h1 style=\"background-color:MediumSeaGreen\" >You won a prize! Well done!</h1><div style=\"background-color:#6dce98\"><h1 style=\"background-color:MediumSeaGreen\" >Only 11 left to go!</h1><img id=\"box\" src=\"img/prizes/ring.png\"></img><img id=\"box\" src=\"img/empty/redopenbox.png\"></img></div>","key_press":null,"trial_type":"html-keyboard-response","trial_index":47,"time_elapsed":344327,"internal_node_id":"0.0-19.11-1.11"},{"rt":1669.899999997113,"stimulus":"<p>Choose a box,</p>","button_pressed":2,"trial_type":"html-button-response","trial_index":48,"time_elapsed":346015,"internal_node_id":"0.0-19.12-0.12"},{"rate":0.18980950611566597,"trial_type":"html-keyboard-response","trial_index":49,"time_elapsed":346016,"internal_node_id":"0.0-19.12-1.12"},{"rt":null,"stimulus":"<div style=\"background-color:#ff7157\"><h1 style=\"background-color:Tomato\">Bad luck! There was no prize in the box!</h1><h1 style=\"background-color:Tomato\">Remember, you need to keep going until you have 20 prizes!</h1><img id=\"box\" src=\"img/sad/purpleopenboxsadthumb.png\"></img></div>","key_press":null,"trial_type":"html-keyboard-response","trial_index":49,"time_elapsed":347534,"internal_node_id":"0.0-19.12-1.12"},{"rt":741.2000000003609,"stimulus":"<p>Choose a box,</p>","button_pressed":0,"trial_type":"html-button-response","trial_index":50,"time_elapsed":348299,"internal_node_id":"0.0-19.13-0.13"},{"rate":0.6639161819994707,"trial_type":"html-keyboard-response","trial_index":51,"time_elapsed":348305,"internal_node_id":"0.0-19.13-1.13"},{"rt":null,"stimulus":"<div style=\"background-color:#6dce98\"><h1 style=\"background-color:MediumSeaGreen\" >You won a prize! Well done!</h1><div style=\"background-color:#6dce98\"><h1 style=\"background-color:MediumSeaGreen\" >Only 10 left to go!</h1><img id=\"box\" src=\"img/prizes/flowers.png\"></img><img id=\"box\" src=\"img/empty/blueopenbox.png\"></img></div>","key_press":null,"trial_type":"html-keyboard-response","trial_index":51,"time_elapsed":349822,"internal_node_id":"0.0-19.13-1.13"},{"rt":654.3000000019674,"stimulus":"<p>Choose a box,</p>","button_pressed":2,"trial_type":"html-button-response","trial_index":52,"time_elapsed":350502,"internal_node_id":"0.0-19.14-0.14"},{"rate":0.18980950611566597,"trial_type":"html-keyboard-response","trial_index":53,"time_elapsed":350503,"internal_node_id":"0.0-19.14-1.14"},{"rt":null,"stimulus":"<div style=\"background-color:#6dce98\"><h1 style=\"background-color:MediumSeaGreen\" >You won a prize! Well done!</h1><div style=\"background-color:#6dce98\"><h1 style=\"background-color:MediumSeaGreen\" >Only 9 left to go!</h1><img id=\"box\" src=\"img/prizes/bear.png\"></img><img id=\"box\" src=\"img/empty/purpleopenbox.png\"></img></div>","key_press":null,"trial_type":"html-keyboard-response","trial_index":53,"time_elapsed":352014,"internal_node_id":"0.0-19.14-1.14"},{"rt":533.6000000024796,"stimulus":"<p>Choose a box,</p>","button_pressed":1,"trial_type":"html-button-response","trial_index":54,"time_elapsed":352562,"internal_node_id":"0.0-19.15-0.15"},{"rate":0.8348471150508167,"trial_type":"html-keyboard-response","trial_index":55,"time_elapsed":352566,"internal_node_id":"0.0-19.15-1.15"},{"rt":null,"stimulus":"<div style=\"background-color:#6dce98\"><h1 style=\"background-color:MediumSeaGreen\" >You won a prize! Well done!</h1><div style=\"background-color:#6dce98\"><h1 style=\"background-color:MediumSeaGreen\" >Only 8 left to go!</h1><img id=\"box\" src=\"img/prizes/bear.png\"></img><img id=\"box\" src=\"img/empty/greenopenbox.png\"></img></div>","key_press":null,"trial_type":"html-keyboard-response","trial_index":55,"time_elapsed":354084,"internal_node_id":"0.0-19.15-1.15"},{"rt":906.4999999973224,"stimulus":"<p>Choose a box,</p>","button_pressed":1,"trial_type":"html-button-response","trial_index":56,"time_elapsed":355018,"internal_node_id":"0.0-19.16-0.16"},{"rate":0.8348471150508167,"trial_type":"html-keyboard-response","trial_index":57,"time_elapsed":355019,"internal_node_id":"0.0-19.16-1.16"},{"rt":null,"stimulus":"<div style=\"background-color:#ff7157\"><h1 style=\"background-color:Tomato\">Bad luck! There was no prize in the box!</h1><h1 style=\"background-color:Tomato\">Remember, you need to keep going until you have 20 prizes!</h1><img id=\"box\" src=\"img/sad/greenopenboxsadthumb.png\"></img></div>","key_press":null,"trial_type":"html-keyboard-response","trial_index":57,"time_elapsed":356533,"internal_node_id":"0.0-19.16-1.16"},{"rt":566.5999999982887,"stimulus":"<p>Choose a box,</p>","button_pressed":3,"trial_type":"html-button-response","trial_index":58,"time_elapsed":357124,"internal_node_id":"0.0-19.17-0.17"},{"rate":0.4610580383034184,"trial_type":"html-keyboard-response","trial_index":59,"time_elapsed":357126,"internal_node_id":"0.0-19.17-1.17"},{"rt":null,"stimulus":"<div style=\"background-color:#6dce98\"><h1 style=\"background-color:MediumSeaGreen\" >You won a prize! Well done!</h1><div style=\"background-color:#6dce98\"><h1 style=\"background-color:MediumSeaGreen\" >Only 7 left to go!</h1><img id=\"box\" src=\"img/prizes/choc.png\"></img><img id=\"box\" src=\"img/empty/redopenbox.png\"></img></div>","key_press":null,"trial_type":"html-keyboard-response","trial_index":59,"time_elapsed":358642,"internal_node_id":"0.0-19.17-1.17"},{"rt":847.8999999969965,"stimulus":"<p>Choose a box,</p>","button_pressed":0,"trial_type":"html-button-response","trial_index":60,"time_elapsed":359523,"internal_node_id":"0.0-19.18-0.18"},{"rate":0.6639161819994707,"trial_type":"html-keyboard-response","trial_index":61,"time_elapsed":359525,"internal_node_id":"0.0-19.18-1.18"},{"rt":null,"stimulus":"<div style=\"background-color:#6dce98\"><h1 style=\"background-color:MediumSeaGreen\" >You won a prize! Well done!</h1><div style=\"background-color:#6dce98\"><h1 style=\"background-color:MediumSeaGreen\" >Only 6 left to go!</h1><img id=\"box\" src=\"img/prizes/coins.png\"></img><img id=\"box\" src=\"img/empty/blueopenbox.png\"></img></div>","key_press":null,"trial_type":"html-keyboard-response","trial_index":61,"time_elapsed":361043,"internal_node_id":"0.0-19.18-1.18"},{"rt":396.3999999978114,"stimulus":"<p>Choose a box,</p>","button_pressed":2,"trial_type":"html-button-response","trial_index":62,"time_elapsed":361474,"internal_node_id":"0.0-19.19-0.19"},{"rate":0.18980950611566597,"trial_type":"html-keyboard-response","trial_index":63,"time_elapsed":361474,"internal_node_id":"0.0-19.19-1.19"},{"rt":null,"stimulus":"<div style=\"background-color:#ff7157\"><h1 style=\"background-color:Tomato\">Bad luck! There was no prize in the box!</h1><h1 style=\"background-color:Tomato\">Remember, you need to keep going until you have 20 prizes!</h1><img id=\"box\" src=\"img/sad/purpleopenboxsadthumb.png\"></img></div>","key_press":null,"trial_type":"html-keyboard-response","trial_index":63,"time_elapsed":362983,"internal_node_id":"0.0-19.19-1.19"},{"rt":734.4000000011874,"stimulus":"<p>Choose a box,</p>","button_pressed":1,"trial_type":"html-button-response","trial_index":64,"time_elapsed":363731,"internal_node_id":"0.0-19.20-0.20"},{"rate":0.8348471150508167,"trial_type":"html-keyboard-response","trial_index":65,"time_elapsed":363737,"internal_node_id":"0.0-19.20-1.20"},{"rt":null,"stimulus":"<div style=\"background-color:#6dce98\"><h1 style=\"background-color:MediumSeaGreen\" >You won a prize! Well done!</h1><div style=\"background-color:#6dce98\"><h1 style=\"background-color:MediumSeaGreen\" >Only 5 left to go!</h1><img id=\"box\" src=\"img/prizes/yoyo.png\"></img><img id=\"box\" src=\"img/empty/greenopenbox.png\"></img></div>","key_press":null,"trial_type":"html-keyboard-response","trial_index":65,"time_elapsed":365253,"internal_node_id":"0.0-19.20-1.20"},{"rt":91.80000000196742,"stimulus":"<p>Choose a box,</p>","button_pressed":1,"trial_type":"html-button-response","trial_index":66,"time_elapsed":365364,"internal_node_id":"0.0-19.21-0.21"},{"rate":0.8348471150508167,"trial_type":"html-keyboard-response","trial_index":67,"time_elapsed":365365,"internal_node_id":"0.0-19.21-1.21"},{"rt":null,"stimulus":"<div style=\"background-color:#6dce98\"><h1 style=\"background-color:MediumSeaGreen\" >You won a prize! Well done!</h1><div style=\"background-color:#6dce98\"><h1 style=\"background-color:MediumSeaGreen\" >Only 4 left to go!</h1><img id=\"box\" src=\"img/prizes/coins.png\"></img><img id=\"box\" src=\"img/empty/greenopenbox.png\"></img></div>","key_press":null,"trial_type":"html-keyboard-response","trial_index":67,"time_elapsed":366880,"internal_node_id":"0.0-19.21-1.21"},{"rt":182.60000000009313,"stimulus":"<p>Choose a box,</p>","button_pressed":1,"trial_type":"html-button-response","trial_index":68,"time_elapsed":367083,"internal_node_id":"0.0-19.22-0.22"},{"rate":0.8348471150508167,"trial_type":"html-keyboard-response","trial_index":69,"time_elapsed":367086,"internal_node_id":"0.0-19.22-1.22"},{"rt":null,"stimulus":"<div style=\"background-color:#6dce98\"><h1 style=\"background-color:MediumSeaGreen\" >You won a prize! Well done!</h1><div style=\"background-color:#6dce98\"><h1 style=\"background-color:MediumSeaGreen\" >Only 3 left to go!</h1><img id=\"box\" src=\"img/prizes/ring.png\"></img><img id=\"box\" src=\"img/empty/greenopenbox.png\"></img></div>","key_press":null,"trial_type":"html-keyboard-response","trial_index":69,"time_elapsed":368604,"internal_node_id":"0.0-19.22-1.22"},{"rt":617.1000000031199,"stimulus":"<p>Choose a box,</p>","button_pressed":1,"trial_type":"html-button-response","trial_index":70,"time_elapsed":369240,"internal_node_id":"0.0-19.23-0.23"},{"rate":0.8348471150508167,"trial_type":"html-keyboard-response","trial_index":71,"time_elapsed":369242,"internal_node_id":"0.0-19.23-1.23"},{"rt":null,"stimulus":"<div style=\"background-color:#6dce98\"><h1 style=\"background-color:MediumSeaGreen\" >You won a prize! Well done!</h1><div style=\"background-color:#6dce98\"><h1 style=\"background-color:MediumSeaGreen\" >Only 2 left to go!</h1><img id=\"box\" src=\"img/prizes/beachball.png\"></img><img id=\"box\" src=\"img/empty/greenopenbox.png\"></img></div>","key_press":null,"trial_type":"html-keyboard-response","trial_index":71,"time_elapsed":370757,"internal_node_id":"0.0-19.23-1.23"},{"rt":762.5999999981723,"stimulus":"<p>Choose a box,</p>","button_pressed":1,"trial_type":"html-button-response","trial_index":72,"time_elapsed":371547,"internal_node_id":"0.0-19.24-0.24"},{"rate":0.8348471150508167,"trial_type":"html-keyboard-response","trial_index":73,"time_elapsed":371549,"internal_node_id":"0.0-19.24-1.24"},{"rt":null,"stimulus":"<div style=\"background-color:#6dce98\"><h1 style=\"background-color:MediumSeaGreen\" >You won a prize! Well done!</h1><div style=\"background-color:#6dce98\"><h1 style=\"background-color:MediumSeaGreen\" >Only 1 left to go!</h1><img id=\"box\" src=\"img/prizes/yoyo.png\"></img><img id=\"box\" src=\"img/empty/greenopenbox.png\"></img></div>","key_press":null,"trial_type":"html-keyboard-response","trial_index":73,"time_elapsed":373066,"internal_node_id":"0.0-19.24-1.24"},{"rt":420.2000000004773,"stimulus":"<p>Choose a box,</p>","button_pressed":1,"trial_type":"html-button-response","trial_index":74,"time_elapsed":373514,"internal_node_id":"0.0-19.25-0.25"},{"rate":0.8348471150508167,"trial_type":"html-keyboard-response","trial_index":75,"time_elapsed":373515,"internal_node_id":"0.0-19.25-1.25"},{"rt":null,"stimulus":"<div style=\"background-color:#6dce98\"><h1 style=\"background-color:MediumSeaGreen\" >You won a prize! Well done!</h1><div style=\"background-color:#6dce98\"><h1 style=\"background-color:MediumSeaGreen\" >Only 0 left to go!</h1><img id=\"box\" src=\"img/prizes/coins.png\"></img><img id=\"box\" src=\"img/empty/greenopenbox.png\"></img></div>","key_press":null,"trial_type":"html-keyboard-response","trial_index":75,"time_elapsed":375034,"internal_node_id":"0.0-19.25-1.25"},{"rt":24899.00000000128,"responses":"{\"Q0\":\"Strange one it is\",\"Q1\":\"It was completely random\"}","trial_type":"survey-text","trial_index":76,"time_elapsed":399967,"internal_node_id":"0.0-20.0"}]