[{"view_history":"[{\"page_index\":0,\"viewing_time\":76767.62500000001},{\"page_index\":1,\"viewing_time\":39447.36499999999},{\"page_index\":2,\"viewing_time\":46135.55000000002},{\"page_index\":3,\"viewing_time\":28858.79999999999},{\"page_index\":4,\"viewing_time\":10902.790000000037},{\"page_index\":5,\"viewing_time\":25897.794999999955}]","rt":228011.265,"trial_type":"instructions","trial_index":0,"time_elapsed":228013,"internal_node_id":"0.0-0.0"},{"rt":20753.680000000022,"responses":"{\"Q0\":\"Yes\",\"Q1\":\"Yes\",\"Q2\":\"Yes\"}","question_order":"[0,1,2]","trial_type":"survey-multi-choice","trial_index":1,"time_elapsed":248771,"internal_node_id":"0.0-1.0-0.0"},{"rt":18596.995000000054,"responses":"{\"Q0\":\"Yes\",\"Q1\":\"Yes\",\"Q2\":\"Yes\"}","question_order":"[0,1,2]","trial_type":"survey-multi-choice","trial_index":2,"time_elapsed":267372,"internal_node_id":"0.0-2.0-0.0"},{"rt":9148.01000000001,"responses":"{\"Q0\":\"6004d64f0346c25c8a7eb3f0\"}","trial_type":"survey-text","trial_index":3,"time_elapsed":276526,"internal_node_id":"0.0-3.0"},{"rt":11188.375000000058,"responses":"{\"Q0\":\"Female\",\"Q1\":\"18-25\"}","question_order":"[0,1]","trial_type":"survey-multi-choice","trial_index":4,"time_elapsed":287717,"internal_node_id":"0.0-4.0"},{"rt":56770.80499999999,"responses":"{\"Q0\":\"Sertraline\"}","trial_type":"survey-text","trial_index":5,"time_elapsed":344492,"internal_node_id":"0.0-5.0"},{"view_history":"[{\"page_index\":0,\"viewing_time\":8641.129999999946}]","rt":8641.515000000014,"trial_type":"instructions","trial_index":6,"time_elapsed":353135,"internal_node_id":"0.0-6.0"},{"rt":21028.07500000007,"responses":"{\"Interested\":2,\"Distressed\":3,\"Excited\":1,\"Upset\":2}","question_order":"[0,1,2,3]","trial_type":"survey-likert","trial_index":7,"time_elapsed":374166,"internal_node_id":"0.0-7.0"},{"rt":20079.25,"responses":"{\"Strong\":3,\"Guilty\":0,\"Scared\":4,\"Hostile\":2}","question_order":"[0,1,2,3]","trial_type":"survey-likert","trial_index":8,"time_elapsed":394249,"internal_node_id":"0.0-8.0"},{"rt":16192.610000000044,"responses":"{\"Enthusiastic\":1,\"Proud\":3,\"Irritable\":2,\"Alert\":3}","question_order":"[0,1,2,3]","trial_type":"survey-likert","trial_index":9,"time_elapsed":410445,"internal_node_id":"0.0-9.0"},{"rt":15546.344999999972,"responses":"{\"Ashamed\":1,\"Inspired\":3,\"Nervous\":4,\"Determined\":2}","question_order":"[0,1,2,3]","trial_type":"survey-likert","trial_index":10,"time_elapsed":425994,"internal_node_id":"0.0-10.0"},{"rt":14434.96000000008,"responses":"{\"Attentive\":2,\"Jittery\":1,\"Active\":1,\"Afraid\":4}","question_order":"[0,1,2,3]","trial_type":"survey-likert","trial_index":11,"time_elapsed":440433,"internal_node_id":"0.0-11.0"},{"rt":44719.419999999984,"responses":"{\"Q0\":2,\"Q1\":1,\"Q2\":3,\"Q3\":1}","question_order":"[0,1,2,3]","trial_type":"survey-likert","trial_index":12,"time_elapsed":485156,"internal_node_id":"0.0-12.0"},{"rt":35212.48999999999,"responses":"{\"Q0\":2,\"Q1\":1,\"Q2\":2,\"Q3\":0}","question_order":"[0,1,2,3]","trial_type":"survey-likert","trial_index":13,"time_elapsed":520372,"internal_node_id":"0.0-13.0"},{"rt":19993.274999999965,"responses":"{\"Q0\":2,\"Q1\":1,\"Q2\":3,\"Q3\":2}","question_order":"[0,1,2,3]","trial_type":"survey-likert","trial_index":14,"time_elapsed":540368,"internal_node_id":"0.0-14.0"},{"rt":14359.080000000075,"responses":"{\"Q0\":0,\"Q1\":1,\"Q2\":2}","question_order":"[0,1,2]","trial_type":"survey-likert","trial_index":15,"time_elapsed":554730,"internal_node_id":"0.0-15.0"},{"view_history":"[{\"page_index\":0,\"viewing_time\":12269.5},{\"page_index\":1,\"viewing_time\":22775.94000000006},{\"page_index\":2,\"viewing_time\":19282.294999999925}]","rt":54328.15000000002,"trial_type":"instructions","trial_index":16,"time_elapsed":609150,"internal_node_id":"0.0-16.0"},{"rt":2511.030000000028,"stimulus":"<p>Choose a box,</p>","button_pressed":3,"trial_type":"html-button-response","trial_index":17,"time_elapsed":611665,"internal_node_id":"0.0-17.0-0.0"},{"rate":0.544943124361685,"trial_type":"html-keyboard-response","trial_index":18,"time_elapsed":611666,"internal_node_id":"0.0-17.0-1.0"},{"rt":null,"stimulus":"<div style=\"background-color:#6dce98\"><h1 style=\"background-color:MediumSeaGreen\" >You won a prize! Well done!</h1><div style=\"background-color:#6dce98\"><h1 style=\"background-color:MediumSeaGreen\" >Only 19 left to go!</h1><img id=\"box\" src=\"img/prizes/beachball.png\"></img><img id=\"box\" src=\"img/empty/redopenbox.png\"></img></div>","key_press":null,"trial_type":"html-keyboard-response","trial_index":18,"time_elapsed":613179,"internal_node_id":"0.0-17.0-1.0"},{"rt":4091.930000000051,"stimulus":"<p>Choose a box,</p>","button_pressed":0,"trial_type":"html-button-response","trial_index":19,"time_elapsed":617275,"internal_node_id":"0.0-17.0-0.1"},{"rate":0.3306705128501528,"trial_type":"html-keyboard-response","trial_index":20,"time_elapsed":617275,"internal_node_id":"0.0-17.0-1.1"},{"rt":null,"stimulus":"<div style=\"background-color:#6dce98\"><h1 style=\"background-color:MediumSeaGreen\" >You won a prize! Well done!</h1><div style=\"background-color:#6dce98\"><h1 style=\"background-color:MediumSeaGreen\" >Only 18 left to go!</h1><img id=\"box\" src=\"img/prizes/ring.png\"></img><img id=\"box\" src=\"img/empty/blueopenbox.png\"></img></div>","key_press":null,"trial_type":"html-keyboard-response","trial_index":20,"time_elapsed":618781,"internal_node_id":"0.0-17.0-1.1"},{"rt":2519.45000000007,"stimulus":"<p>Choose a box,</p>","button_pressed":3,"trial_type":"html-button-response","trial_index":21,"time_elapsed":621304,"internal_node_id":"0.0-17.0-0.2"},{"rate":0.544943124361685,"trial_type":"html-keyboard-response","trial_index":22,"time_elapsed":621304,"internal_node_id":"0.0-17.0-1.2"},{"rt":null,"stimulus":"<div style=\"background-color:#6dce98\"><h1 style=\"background-color:MediumSeaGreen\" >You won a prize! Well done!</h1><div style=\"background-color:#6dce98\"><h1 style=\"background-color:MediumSeaGreen\" >Only 17 left to go!</h1><img id=\"box\" src=\"img/prizes/beachball.png\"></img><img id=\"box\" src=\"img/empty/redopenbox.png\"></img></div>","key_press":null,"trial_type":"html-keyboard-response","trial_index":22,"time_elapsed":622817,"internal_node_id":"0.0-17.0-1.2"},{"view_history":"[{\"page_index\":0,\"viewing_time\":24165.480000000098}]","rt":24165.855000000098,"trial_type":"instructions","trial_index":23,"time_elapsed":650942,"internal_node_id":"0.0-18.0"},{"rt":2711.1900000000605,"stimulus":"<p>Choose a box,</p>","button_pressed":2,"trial_type":"html-button-response","trial_index":24,"time_elapsed":653656,"internal_node_id":"0.0-19.0-0.0"},{"rate":0.8468291613774275,"trial_type":"html-keyboard-response","trial_index":25,"time_elapsed":653656,"internal_node_id":"0.0-19.0-1.0"},{"rt":null,"stimulus":"<div style=\"background-color:#ff7157\"><h1 style=\"background-color:Tomato\">Bad luck! There was no prize in the box!</h1><h1 style=\"background-color:Tomato\">Remember, you need to keep going until you have 20 prizes!</h1><img id=\"box\" src=\"img/sad/purpleopenboxsadthumb.png\"></img></div>","key_press":null,"trial_type":"html-keyboard-response","trial_index":25,"time_elapsed":655172,"internal_node_id":"0.0-19.0-1.0"},{"rt":4407.869999999995,"stimulus":"<p>Choose a box,</p>","button_pressed":1,"trial_type":"html-button-response","trial_index":26,"time_elapsed":659584,"internal_node_id":"0.0-19.1-0.1"},{"rate":0.2881417183955491,"trial_type":"html-keyboard-response","trial_index":27,"time_elapsed":659585,"internal_node_id":"0.0-19.1-1.1"},{"rt":null,"stimulus":"<div style=\"background-color:#ff7157\"><h1 style=\"background-color:Tomato\">Bad luck! There was no prize in the box!</h1><h1 style=\"background-color:Tomato\">Remember, you need to keep going until you have 20 prizes!</h1><img id=\"box\" src=\"img/sad/greenopenboxsadthumb.png\"></img></div>","key_press":null,"trial_type":"html-keyboard-response","trial_index":27,"time_elapsed":661093,"internal_node_id":"0.0-19.1-1.1"},{"rt":2582.7550000000047,"stimulus":"<p>Choose a box,</p>","button_pressed":0,"trial_type":"html-button-response","trial_index":28,"time_elapsed":663678,"internal_node_id":"0.0-19.2-0.2"},{"rate":0.64447416970309,"trial_type":"html-keyboard-response","trial_index":29,"time_elapsed":663679,"internal_node_id":"0.0-19.2-1.2"},{"rt":null,"stimulus":"<div style=\"background-color:#6dce98\"><h1 style=\"background-color:MediumSeaGreen\" >You won a prize! Well done!</h1><div style=\"background-color:#6dce98\"><h1 style=\"background-color:MediumSeaGreen\" >Only 19 left to go!</h1><img id=\"box\" src=\"img/prizes/yoyo.png\"></img><img id=\"box\" src=\"img/empty/blueopenbox.png\"></img></div>","key_press":null,"trial_type":"html-keyboard-response","trial_index":29,"time_elapsed":665186,"internal_node_id":"0.0-19.2-1.2"},{"rt":2371.2550000000047,"stimulus":"<p>Choose a box,</p>","button_pressed":1,"trial_type":"html-button-response","trial_index":30,"time_elapsed":667560,"internal_node_id":"0.0-19.3-0.3"},{"rate":0.2881417183955491,"trial_type":"html-keyboard-response","trial_index":31,"time_elapsed":667560,"internal_node_id":"0.0-19.3-1.3"},{"rt":null,"stimulus":"<div style=\"background-color:#ff7157\"><h1 style=\"background-color:Tomato\">Bad luck! There was no prize in the box!</h1><h1 style=\"background-color:Tomato\">Remember, you need to keep going until you have 20 prizes!</h1><img id=\"box\" src=\"img/sad/greenopenboxsadthumb.png\"></img></div>","key_press":null,"trial_type":"html-keyboard-response","trial_index":31,"time_elapsed":669063,"internal_node_id":"0.0-19.3-1.3"},{"rt":889.8749999998836,"stimulus":"<p>Choose a box,</p>","button_pressed":3,"trial_type":"html-button-response","trial_index":32,"time_elapsed":669956,"internal_node_id":"0.0-19.4-0.4"},{"rate":0.44698419019164853,"trial_type":"html-keyboard-response","trial_index":33,"time_elapsed":669956,"internal_node_id":"0.0-19.4-1.4"},{"rt":null,"stimulus":"<div style=\"background-color:#ff7157\"><h1 style=\"background-color:Tomato\">Bad luck! There was no prize in the box!</h1><h1 style=\"background-color:Tomato\">Remember, you need to keep going until you have 20 prizes!</h1><img id=\"box\" src=\"img/sad/redopenboxsadthumb.png\"></img></div>","key_press":null,"trial_type":"html-keyboard-response","trial_index":33,"time_elapsed":671470,"internal_node_id":"0.0-19.4-1.4"},{"rt":1131.3950000000186,"stimulus":"<p>Choose a box,</p>","button_pressed":2,"trial_type":"html-button-response","trial_index":34,"time_elapsed":672604,"internal_node_id":"0.0-19.5-0.5"},{"rate":0.8468291613774275,"trial_type":"html-keyboard-response","trial_index":35,"time_elapsed":672604,"internal_node_id":"0.0-19.5-1.5"},{"rt":null,"stimulus":"<div style=\"background-color:#ff7157\"><h1 style=\"background-color:Tomato\">Bad luck! There was no prize in the box!</h1><h1 style=\"background-color:Tomato\">Remember, you need to keep going until you have 20 prizes!</h1><img id=\"box\" src=\"img/sad/purpleopenboxsadthumb.png\"></img></div>","key_press":null,"trial_type":"html-keyboard-response","trial_index":35,"time_elapsed":674116,"internal_node_id":"0.0-19.5-1.5"},{"rt":965.6049999999814,"stimulus":"<p>Choose a box,</p>","button_pressed":3,"trial_type":"html-button-response","trial_index":36,"time_elapsed":675084,"internal_node_id":"0.0-19.6-0.6"},{"rate":0.44698419019164853,"trial_type":"html-keyboard-response","trial_index":37,"time_elapsed":675084,"internal_node_id":"0.0-19.6-1.6"},{"rt":null,"stimulus":"<div style=\"background-color:#6dce98\"><h1 style=\"background-color:MediumSeaGreen\" >You won a prize! Well done!</h1><div style=\"background-color:#6dce98\"><h1 style=\"background-color:MediumSeaGreen\" >Only 18 left to go!</h1><img id=\"box\" src=\"img/prizes/flowers.png\"></img><img id=\"box\" src=\"img/empty/redopenbox.png\"></img></div>","key_press":null,"trial_type":"html-keyboard-response","trial_index":37,"time_elapsed":676602,"internal_node_id":"0.0-19.6-1.6"},{"rt":1893.719999999972,"stimulus":"<p>Choose a box,</p>","button_pressed":1,"trial_type":"html-button-response","trial_index":38,"time_elapsed":678499,"internal_node_id":"0.0-19.7-0.7"},{"rate":0.2881417183955491,"trial_type":"html-keyboard-response","trial_index":39,"time_elapsed":678499,"internal_node_id":"0.0-19.7-1.7"},{"rt":null,"stimulus":"<div style=\"background-color:#6dce98\"><h1 style=\"background-color:MediumSeaGreen\" >You won a prize! Well done!</h1><div style=\"background-color:#6dce98\"><h1 style=\"background-color:MediumSeaGreen\" >Only 17 left to go!</h1><img id=\"box\" src=\"img/prizes/lolipop.png\"></img><img id=\"box\" src=\"img/empty/greenopenbox.png\"></img></div>","key_press":null,"trial_type":"html-keyboard-response","trial_index":39,"time_elapsed":680002,"internal_node_id":"0.0-19.7-1.7"},{"rt":3437.280000000028,"stimulus":"<p>Choose a box,</p>","button_pressed":2,"trial_type":"html-button-response","trial_index":40,"time_elapsed":683443,"internal_node_id":"0.0-19.8-0.8"},{"rate":0.8468291613774275,"trial_type":"html-keyboard-response","trial_index":41,"time_elapsed":683443,"internal_node_id":"0.0-19.8-1.8"},{"rt":null,"stimulus":"<div style=\"background-color:#6dce98\"><h1 style=\"background-color:MediumSeaGreen\" >You won a prize! Well done!</h1><div style=\"background-color:#6dce98\"><h1 style=\"background-color:MediumSeaGreen\" >Only 16 left to go!</h1><img id=\"box\" src=\"img/prizes/lolipop.png\"></img><img id=\"box\" src=\"img/empty/purpleopenbox.png\"></img></div>","key_press":null,"trial_type":"html-keyboard-response","trial_index":41,"time_elapsed":684958,"internal_node_id":"0.0-19.8-1.8"},{"rt":1912.6450000000186,"stimulus":"<p>Choose a box,</p>","button_pressed":3,"trial_type":"html-button-response","trial_index":42,"time_elapsed":686874,"internal_node_id":"0.0-19.9-0.9"},{"rate":0.44698419019164853,"trial_type":"html-keyboard-response","trial_index":43,"time_elapsed":686874,"internal_node_id":"0.0-19.9-1.9"},{"rt":null,"stimulus":"<div style=\"background-color:#ff7157\"><h1 style=\"background-color:Tomato\">Bad luck! There was no prize in the box!</h1><h1 style=\"background-color:Tomato\">Remember, you need to keep going until you have 20 prizes!</h1><img id=\"box\" src=\"img/sad/redopenboxsadthumb.png\"></img></div>","key_press":null,"trial_type":"html-keyboard-response","trial_index":43,"time_elapsed":688376,"internal_node_id":"0.0-19.9-1.9"},{"rt":1197.5349999999162,"stimulus":"<p>Choose a box,</p>","button_pressed":0,"trial_type":"html-button-response","trial_index":44,"time_elapsed":689577,"internal_node_id":"0.0-19.10-0.10"},{"rate":0.64447416970309,"trial_type":"html-keyboard-response","trial_index":45,"time_elapsed":689577,"internal_node_id":"0.0-19.10-1.10"},{"rt":null,"stimulus":"<div style=\"background-color:#ff7157\"><h1 style=\"background-color:Tomato\">Bad luck! There was no prize in the box!</h1><h1 style=\"background-color:Tomato\">Remember, you need to keep going until you have 20 prizes!</h1><img id=\"box\" src=\"img/sad/blueopenboxsadthumb.png\"></img></div>","key_press":null,"trial_type":"html-keyboard-response","trial_index":45,"time_elapsed":691091,"internal_node_id":"0.0-19.10-1.10"},{"rt":856.9500000000698,"stimulus":"<p>Choose a box,</p>","button_pressed":1,"trial_type":"html-button-response","trial_index":46,"time_elapsed":691951,"internal_node_id":"0.0-19.11-0.11"},{"rate":0.2881417183955491,"trial_type":"html-keyboard-response","trial_index":47,"time_elapsed":691952,"internal_node_id":"0.0-19.11-1.11"},{"rt":null,"stimulus":"<div style=\"background-color:#6dce98\"><h1 style=\"background-color:MediumSeaGreen\" >You won a prize! Well done!</h1><div style=\"background-color:#6dce98\"><h1 style=\"background-color:MediumSeaGreen\" >Only 15 left to go!</h1><img id=\"box\" src=\"img/prizes/beachball.png\"></img><img id=\"box\" src=\"img/empty/greenopenbox.png\"></img></div>","key_press":null,"trial_type":"html-keyboard-response","trial_index":47,"time_elapsed":693464,"internal_node_id":"0.0-19.11-1.11"},{"rt":1098.9400000000605,"stimulus":"<p>Choose a box,</p>","button_pressed":3,"trial_type":"html-button-response","trial_index":48,"time_elapsed":694566,"internal_node_id":"0.0-19.12-0.12"},{"rate":0.44698419019164853,"trial_type":"html-keyboard-response","trial_index":49,"time_elapsed":694566,"internal_node_id":"0.0-19.12-1.12"},{"rt":null,"stimulus":"<div style=\"background-color:#ff7157\"><h1 style=\"background-color:Tomato\">Bad luck! There was no prize in the box!</h1><h1 style=\"background-color:Tomato\">Remember, you need to keep going until you have 20 prizes!</h1><img id=\"box\" src=\"img/sad/redopenboxsadthumb.png\"></img></div>","key_press":null,"trial_type":"html-keyboard-response","trial_index":49,"time_elapsed":696077,"internal_node_id":"0.0-19.12-1.12"},{"rt":1381.4949999999953,"stimulus":"<p>Choose a box,</p>","button_pressed":2,"trial_type":"html-button-response","trial_index":50,"time_elapsed":697461,"internal_node_id":"0.0-19.13-0.13"},{"rate":0.8468291613774275,"trial_type":"html-keyboard-response","trial_index":51,"time_elapsed":697461,"internal_node_id":"0.0-19.13-1.13"},{"rt":null,"stimulus":"<div style=\"background-color:#ff7157\"><h1 style=\"background-color:Tomato\">Bad luck! There was no prize in the box!</h1><h1 style=\"background-color:Tomato\">Remember, you need to keep going until you have 20 prizes!</h1><img id=\"box\" src=\"img/sad/purpleopenboxsadthumb.png\"></img></div>","key_press":null,"trial_type":"html-keyboard-response","trial_index":51,"time_elapsed":698964,"internal_node_id":"0.0-19.13-1.13"},{"rt":958.625,"stimulus":"<p>Choose a box,</p>","button_pressed":1,"trial_type":"html-button-response","trial_index":52,"time_elapsed":699926,"internal_node_id":"0.0-19.14-0.14"},{"rate":0.2881417183955491,"trial_type":"html-keyboard-response","trial_index":53,"time_elapsed":699926,"internal_node_id":"0.0-19.14-1.14"},{"rt":null,"stimulus":"<div style=\"background-color:#6dce98\"><h1 style=\"background-color:MediumSeaGreen\" >You won a prize! Well done!</h1><div style=\"background-color:#6dce98\"><h1 style=\"background-color:MediumSeaGreen\" >Only 14 left to go!</h1><img id=\"box\" src=\"img/prizes/bear.png\"></img><img id=\"box\" src=\"img/empty/greenopenbox.png\"></img></div>","key_press":null,"trial_type":"html-keyboard-response","trial_index":53,"time_elapsed":701474,"internal_node_id":"0.0-19.14-1.14"},{"rt":1380.3349999999627,"stimulus":"<p>Choose a box,</p>","button_pressed":3,"trial_type":"html-button-response","trial_index":54,"time_elapsed":702857,"internal_node_id":"0.0-19.15-0.15"},{"rate":0.44698419019164853,"trial_type":"html-keyboard-response","trial_index":55,"time_elapsed":702857,"internal_node_id":"0.0-19.15-1.15"},{"rt":null,"stimulus":"<div style=\"background-color:#6dce98\"><h1 style=\"background-color:MediumSeaGreen\" >You won a prize! Well done!</h1><div style=\"background-color:#6dce98\"><h1 style=\"background-color:MediumSeaGreen\" >Only 13 left to go!</h1><img id=\"box\" src=\"img/prizes/coins.png\"></img><img id=\"box\" src=\"img/empty/redopenbox.png\"></img></div>","key_press":null,"trial_type":"html-keyboard-response","trial_index":55,"time_elapsed":704371,"internal_node_id":"0.0-19.15-1.15"},{"rt":1332.9399999999441,"stimulus":"<p>Choose a box,</p>","button_pressed":0,"trial_type":"html-button-response","trial_index":56,"time_elapsed":705707,"internal_node_id":"0.0-19.16-0.16"},{"rate":0.64447416970309,"trial_type":"html-keyboard-response","trial_index":57,"time_elapsed":705707,"internal_node_id":"0.0-19.16-1.16"},{"rt":null,"stimulus":"<div style=\"background-color:#6dce98\"><h1 style=\"background-color:MediumSeaGreen\" >You won a prize! Well done!</h1><div style=\"background-color:#6dce98\"><h1 style=\"background-color:MediumSeaGreen\" >Only 12 left to go!</h1><img id=\"box\" src=\"img/prizes/bear.png\"></img><img id=\"box\" src=\"img/empty/blueopenbox.png\"></img></div>","key_press":null,"trial_type":"html-keyboard-response","trial_index":57,"time_elapsed":707216,"internal_node_id":"0.0-19.16-1.16"},{"rt":1347.3799999998882,"stimulus":"<p>Choose a box,</p>","button_pressed":2,"trial_type":"html-button-response","trial_index":58,"time_elapsed":708567,"internal_node_id":"0.0-19.17-0.17"},{"rate":0.8468291613774275,"trial_type":"html-keyboard-response","trial_index":59,"time_elapsed":708567,"internal_node_id":"0.0-19.17-1.17"},{"rt":null,"stimulus":"<div style=\"background-color:#6dce98\"><h1 style=\"background-color:MediumSeaGreen\" >You won a prize! Well done!</h1><div style=\"background-color:#6dce98\"><h1 style=\"background-color:MediumSeaGreen\" >Only 11 left to go!</h1><img id=\"box\" src=\"img/prizes/duck.png\"></img><img id=\"box\" src=\"img/empty/purpleopenbox.png\"></img></div>","key_press":null,"trial_type":"html-keyboard-response","trial_index":59,"time_elapsed":710078,"internal_node_id":"0.0-19.17-1.17"},{"rt":1218.795000000042,"stimulus":"<p>Choose a box,</p>","button_pressed":3,"trial_type":"html-button-response","trial_index":60,"time_elapsed":711300,"internal_node_id":"0.0-19.18-0.18"},{"rate":0.44698419019164853,"trial_type":"html-keyboard-response","trial_index":61,"time_elapsed":711301,"internal_node_id":"0.0-19.18-1.18"},{"rt":null,"stimulus":"<div style=\"background-color:#ff7157\"><h1 style=\"background-color:Tomato\">Bad luck! There was no prize in the box!</h1><h1 style=\"background-color:Tomato\">Remember, you need to keep going until you have 20 prizes!</h1><img id=\"box\" src=\"img/sad/redopenboxsadthumb.png\"></img></div>","key_press":null,"trial_type":"html-keyboard-response","trial_index":61,"time_elapsed":712811,"internal_node_id":"0.0-19.18-1.18"},{"rt":829.7100000000792,"stimulus":"<p>Choose a box,</p>","button_pressed":1,"trial_type":"html-button-response","trial_index":62,"time_elapsed":713648,"internal_node_id":"0.0-19.19-0.19"},{"rate":0.2881417183955491,"trial_type":"html-keyboard-response","trial_index":63,"time_elapsed":713648,"internal_node_id":"0.0-19.19-1.19"},{"rt":null,"stimulus":"<div style=\"background-color:#ff7157\"><h1 style=\"background-color:Tomato\">Bad luck! There was no prize in the box!</h1><h1 style=\"background-color:Tomato\">Remember, you need to keep going until you have 20 prizes!</h1><img id=\"box\" src=\"img/sad/greenopenboxsadthumb.png\"></img></div>","key_press":null,"trial_type":"html-keyboard-response","trial_index":63,"time_elapsed":715157,"internal_node_id":"0.0-19.19-1.19"},{"rt":752.75,"stimulus":"<p>Choose a box,</p>","button_pressed":2,"trial_type":"html-button-response","trial_index":64,"time_elapsed":715912,"internal_node_id":"0.0-19.20-0.20"},{"rate":0.8468291613774275,"trial_type":"html-keyboard-response","trial_index":65,"time_elapsed":715913,"internal_node_id":"0.0-19.20-1.20"},{"rt":null,"stimulus":"<div style=\"background-color:#6dce98\"><h1 style=\"background-color:MediumSeaGreen\" >You won a prize! Well done!</h1><div style=\"background-color:#6dce98\"><h1 style=\"background-color:MediumSeaGreen\" >Only 10 left to go!</h1><img id=\"box\" src=\"img/prizes/ring.png\"></img><img id=\"box\" src=\"img/empty/purpleopenbox.png\"></img></div>","key_press":null,"trial_type":"html-keyboard-response","trial_index":65,"time_elapsed":717423,"internal_node_id":"0.0-19.20-1.20"},{"rt":1433.530000000028,"stimulus":"<p>Choose a box,</p>","button_pressed":0,"trial_type":"html-button-response","trial_index":66,"time_elapsed":718859,"internal_node_id":"0.0-19.21-0.21"},{"rate":0.64447416970309,"trial_type":"html-keyboard-response","trial_index":67,"time_elapsed":718859,"internal_node_id":"0.0-19.21-1.21"},{"rt":null,"stimulus":"<div style=\"background-color:#6dce98\"><h1 style=\"background-color:MediumSeaGreen\" >You won a prize! Well done!</h1><div style=\"background-color:#6dce98\"><h1 style=\"background-color:MediumSeaGreen\" >Only 9 left to go!</h1><img id=\"box\" src=\"img/prizes/bear.png\"></img><img id=\"box\" src=\"img/empty/blueopenbox.png\"></img></div>","key_press":null,"trial_type":"html-keyboard-response","trial_index":67,"time_elapsed":720371,"internal_node_id":"0.0-19.21-1.21"},{"rt":1149.329999999958,"stimulus":"<p>Choose a box,</p>","button_pressed":3,"trial_type":"html-button-response","trial_index":68,"time_elapsed":721523,"internal_node_id":"0.0-19.22-0.22"},{"rate":0.44698419019164853,"trial_type":"html-keyboard-response","trial_index":69,"time_elapsed":721523,"internal_node_id":"0.0-19.22-1.22"},{"rt":null,"stimulus":"<div style=\"background-color:#6dce98\"><h1 style=\"background-color:MediumSeaGreen\" >You won a prize! Well done!</h1><div style=\"background-color:#6dce98\"><h1 style=\"background-color:MediumSeaGreen\" >Only 8 left to go!</h1><img id=\"box\" src=\"img/prizes/lolipop.png\"></img><img id=\"box\" src=\"img/empty/redopenbox.png\"></img></div>","key_press":null,"trial_type":"html-keyboard-response","trial_index":69,"time_elapsed":723035,"internal_node_id":"0.0-19.22-1.22"},{"rt":966.5999999999767,"stimulus":"<p>Choose a box,</p>","button_pressed":1,"trial_type":"html-button-response","trial_index":70,"time_elapsed":724005,"internal_node_id":"0.0-19.23-0.23"},{"rate":0.2881417183955491,"trial_type":"html-keyboard-response","trial_index":71,"time_elapsed":724005,"internal_node_id":"0.0-19.23-1.23"},{"rt":null,"stimulus":"<div style=\"background-color:#ff7157\"><h1 style=\"background-color:Tomato\">Bad luck! There was no prize in the box!</h1><h1 style=\"background-color:Tomato\">Remember, you need to keep going until you have 20 prizes!</h1><img id=\"box\" src=\"img/sad/greenopenboxsadthumb.png\"></img></div>","key_press":null,"trial_type":"html-keyboard-response","trial_index":71,"time_elapsed":725517,"internal_node_id":"0.0-19.23-1.23"},{"rt":930.6600000000326,"stimulus":"<p>Choose a box,</p>","button_pressed":3,"trial_type":"html-button-response","trial_index":72,"time_elapsed":726449,"internal_node_id":"0.0-19.24-0.24"},{"rate":0.44698419019164853,"trial_type":"html-keyboard-response","trial_index":73,"time_elapsed":726450,"internal_node_id":"0.0-19.24-1.24"},{"rt":null,"stimulus":"<div style=\"background-color:#ff7157\"><h1 style=\"background-color:Tomato\">Bad luck! There was no prize in the box!</h1><h1 style=\"background-color:Tomato\">Remember, you need to keep going until you have 20 prizes!</h1><img id=\"box\" src=\"img/sad/redopenboxsadthumb.png\"></img></div>","key_press":null,"trial_type":"html-keyboard-response","trial_index":73,"time_elapsed":727952,"internal_node_id":"0.0-19.24-1.24"},{"rt":694.7850000000326,"stimulus":"<p>Choose a box,</p>","button_pressed":2,"trial_type":"html-button-response","trial_index":74,"time_elapsed":728650,"internal_node_id":"0.0-19.25-0.25"},{"rate":0.8468291613774275,"trial_type":"html-keyboard-response","trial_index":75,"time_elapsed":728650,"internal_node_id":"0.0-19.25-1.25"},{"rt":null,"stimulus":"<div style=\"background-color:#6dce98\"><h1 style=\"background-color:MediumSeaGreen\" >You won a prize! Well done!</h1><div style=\"background-color:#6dce98\"><h1 style=\"background-color:MediumSeaGreen\" >Only 7 left to go!</h1><img id=\"box\" src=\"img/prizes/choc.png\"></img><img id=\"box\" src=\"img/empty/purpleopenbox.png\"></img></div>","key_press":null,"trial_type":"html-keyboard-response","trial_index":75,"time_elapsed":730156,"internal_node_id":"0.0-19.25-1.25"},{"rt":1502.9000000000233,"stimulus":"<p>Choose a box,</p>","button_pressed":0,"trial_type":"html-button-response","trial_index":76,"time_elapsed":731662,"internal_node_id":"0.0-19.26-0.26"},{"rate":0.64447416970309,"trial_type":"html-keyboard-response","trial_index":77,"time_elapsed":731662,"internal_node_id":"0.0-19.26-1.26"},{"rt":null,"stimulus":"<div style=\"background-color:#6dce98\"><h1 style=\"background-color:MediumSeaGreen\" >You won a prize! Well done!</h1><div style=\"background-color:#6dce98\"><h1 style=\"background-color:MediumSeaGreen\" >Only 6 left to go!</h1><img id=\"box\" src=\"img/prizes/yoyo.png\"></img><img id=\"box\" src=\"img/empty/blueopenbox.png\"></img></div>","key_press":null,"trial_type":"html-keyboard-response","trial_index":77,"time_elapsed":733175,"internal_node_id":"0.0-19.26-1.26"},{"rt":849.0400000000373,"stimulus":"<p>Choose a box,</p>","button_pressed":1,"trial_type":"html-button-response","trial_index":78,"time_elapsed":734027,"internal_node_id":"0.0-19.27-0.27"},{"rate":0.2881417183955491,"trial_type":"html-keyboard-response","trial_index":79,"time_elapsed":734027,"internal_node_id":"0.0-19.27-1.27"},{"rt":null,"stimulus":"<div style=\"background-color:#6dce98\"><h1 style=\"background-color:MediumSeaGreen\" >You won a prize! Well done!</h1><div style=\"background-color:#6dce98\"><h1 style=\"background-color:MediumSeaGreen\" >Only 5 left to go!</h1><img id=\"box\" src=\"img/prizes/yoyo.png\"></img><img id=\"box\" src=\"img/empty/greenopenbox.png\"></img></div>","key_press":null,"trial_type":"html-keyboard-response","trial_index":79,"time_elapsed":735538,"internal_node_id":"0.0-19.27-1.27"},{"rt":964.7550000000047,"stimulus":"<p>Choose a box,</p>","button_pressed":2,"trial_type":"html-button-response","trial_index":80,"time_elapsed":736505,"internal_node_id":"0.0-19.28-0.28"},{"rate":0.8468291613774275,"trial_type":"html-keyboard-response","trial_index":81,"time_elapsed":736505,"internal_node_id":"0.0-19.28-1.28"},{"rt":null,"stimulus":"<div style=\"background-color:#6dce98\"><h1 style=\"background-color:MediumSeaGreen\" >You won a prize! Well done!</h1><div style=\"background-color:#6dce98\"><h1 style=\"background-color:MediumSeaGreen\" >Only 4 left to go!</h1><img id=\"box\" src=\"img/prizes/ring.png\"></img><img id=\"box\" src=\"img/empty/purpleopenbox.png\"></img></div>","key_press":null,"trial_type":"html-keyboard-response","trial_index":81,"time_elapsed":738019,"internal_node_id":"0.0-19.28-1.28"},{"rt":1001.3250000000698,"stimulus":"<p>Choose a box,</p>","button_pressed":3,"trial_type":"html-button-response","trial_index":82,"time_elapsed":739023,"internal_node_id":"0.0-19.29-0.29"},{"rate":0.44698419019164853,"trial_type":"html-keyboard-response","trial_index":83,"time_elapsed":739023,"internal_node_id":"0.0-19.29-1.29"},{"rt":null,"stimulus":"<div style=\"background-color:#6dce98\"><h1 style=\"background-color:MediumSeaGreen\" >You won a prize! Well done!</h1><div style=\"background-color:#6dce98\"><h1 style=\"background-color:MediumSeaGreen\" >Only 3 left to go!</h1><img id=\"box\" src=\"img/prizes/beachball.png\"></img><img id=\"box\" src=\"img/empty/redopenbox.png\"></img></div>","key_press":null,"trial_type":"html-keyboard-response","trial_index":83,"time_elapsed":740535,"internal_node_id":"0.0-19.29-1.29"},{"rt":847.7400000001071,"stimulus":"<p>Choose a box,</p>","button_pressed":1,"trial_type":"html-button-response","trial_index":84,"time_elapsed":741386,"internal_node_id":"0.0-19.30-0.30"},{"rate":0.2881417183955491,"trial_type":"html-keyboard-response","trial_index":85,"time_elapsed":741386,"internal_node_id":"0.0-19.30-1.30"},{"rt":null,"stimulus":"<div style=\"background-color:#ff7157\"><h1 style=\"background-color:Tomato\">Bad luck! There was no prize in the box!</h1><h1 style=\"background-color:Tomato\">Remember, you need to keep going until you have 20 prizes!</h1><img id=\"box\" src=\"img/sad/greenopenboxsadthumb.png\"></img></div>","key_press":null,"trial_type":"html-keyboard-response","trial_index":85,"time_elapsed":742898,"internal_node_id":"0.0-19.30-1.30"},{"rt":1582.719999999972,"stimulus":"<p>Choose a box,</p>","button_pressed":0,"trial_type":"html-button-response","trial_index":86,"time_elapsed":744483,"internal_node_id":"0.0-19.31-0.31"},{"rate":0.64447416970309,"trial_type":"html-keyboard-response","trial_index":87,"time_elapsed":744484,"internal_node_id":"0.0-19.31-1.31"},{"rt":null,"stimulus":"<div style=\"background-color:#6dce98\"><h1 style=\"background-color:MediumSeaGreen\" >You won a prize! Well done!</h1><div style=\"background-color:#6dce98\"><h1 style=\"background-color:MediumSeaGreen\" >Only 2 left to go!</h1><img id=\"box\" src=\"img/prizes/coins.png\"></img><img id=\"box\" src=\"img/empty/blueopenbox.png\"></img></div>","key_press":null,"trial_type":"html-keyboard-response","trial_index":87,"time_elapsed":745996,"internal_node_id":"0.0-19.31-1.31"},{"rt":1596.7450000001118,"stimulus":"<p>Choose a box,</p>","button_pressed":2,"trial_type":"html-button-response","trial_index":88,"time_elapsed":747596,"internal_node_id":"0.0-19.32-0.32"},{"rate":0.8468291613774275,"trial_type":"html-keyboard-response","trial_index":89,"time_elapsed":747596,"internal_node_id":"0.0-19.32-1.32"},{"rt":null,"stimulus":"<div style=\"background-color:#6dce98\"><h1 style=\"background-color:MediumSeaGreen\" >You won a prize! Well done!</h1><div style=\"background-color:#6dce98\"><h1 style=\"background-color:MediumSeaGreen\" >Only 1 left to go!</h1><img id=\"box\" src=\"img/prizes/coins.png\"></img><img id=\"box\" src=\"img/empty/purpleopenbox.png\"></img></div>","key_press":null,"trial_type":"html-keyboard-response","trial_index":89,"time_elapsed":749110,"internal_node_id":"0.0-19.32-1.32"},{"rt":1131.4150000000373,"stimulus":"<p>Choose a box,</p>","button_pressed":3,"trial_type":"html-button-response","trial_index":90,"time_elapsed":750244,"internal_node_id":"0.0-19.33-0.33"},{"rate":0.44698419019164853,"trial_type":"html-keyboard-response","trial_index":91,"time_elapsed":750245,"internal_node_id":"0.0-19.33-1.33"},{"rt":null,"stimulus":"<div style=\"background-color:#6dce98\"><h1 style=\"background-color:MediumSeaGreen\" >You won a prize! Well done!</h1><div style=\"background-color:#6dce98\"><h1 style=\"background-color:MediumSeaGreen\" >Only 0 left to go!</h1><img id=\"box\" src=\"img/prizes/duck.png\"></img><img id=\"box\" src=\"img/empty/redopenbox.png\"></img></div>","key_press":null,"trial_type":"html-keyboard-response","trial_index":91,"time_elapsed":751757,"internal_node_id":"0.0-19.33-1.33"},{"rt":206156.07499999984,"responses":"{\"Q0\":\"The experiment was quite fun and pushed me to try to find a strategy that could help which captivated my attention.\",\"Q1\":\"I went with opening the boxes chronologically, which in turn lead me to opening boxes with gifts often.\"}","trial_type":"survey-text","trial_index":92,"time_elapsed":958209,"internal_node_id":"0.0-20.0"}]