[{"rt":1507.595000002766,"stimulus":"<p>Choose a box,</p>","button_pressed":1,"trial_type":"html-button-response","trial_index":0,"time_elapsed":1513,"internal_node_id":"0.0-0.0-0.0"},{"rate":0,"trial_type":"html-keyboard-response","trial_index":1,"time_elapsed":1514,"internal_node_id":"0.0-0.0-1.0"},{"rt":null,"stimulus":"<div style=\"background-color:#ff7157\"><h1 style=\"background-color:Tomato\">Bad luck! There was no prize in the box!</h1><h1 style=\"background-color:Tomato\">Remember, you need to have 20 prizes to finish!</h1><img id=\"box\" src=\"img/sad/greenopenboxsadthumb.png\"></img></div>","key_press":null,"trial_type":"html-keyboard-response","trial_index":1,"time_elapsed":3017,"internal_node_id":"0.0-0.0-1.0"},{"rt":959.6050000109244,"stimulus":"<p>Choose a box,</p>","button_pressed":0,"trial_type":"html-button-response","trial_index":2,"time_elapsed":3979,"internal_node_id":"0.0-0.0-0.1"},{"rate":0,"trial_type":"html-keyboard-response","trial_index":3,"time_elapsed":3979,"internal_node_id":"0.0-0.0-1.1"},{"rt":null,"stimulus":"<div style=\"background-color:#ff7157\"><h1 style=\"background-color:Tomato\">Bad luck! There was no prize in the box!</h1><h1 style=\"background-color:Tomato\">Remember, you need to have 20 prizes to finish!</h1><img id=\"box\" src=\"img/sad/blueopenboxsadthumb.png\"></img></div>","key_press":null,"trial_type":"html-keyboard-response","trial_index":3,"time_elapsed":5482,"internal_node_id":"0.0-0.0-1.1"},{"rt":467.55999999004416,"stimulus":"<p>Choose a box,</p>","button_pressed":2,"trial_type":"html-button-response","trial_index":4,"time_elapsed":5952,"internal_node_id":"0.0-0.0-0.2"},{"rate":0,"trial_type":"html-keyboard-response","trial_index":5,"time_elapsed":5952,"internal_node_id":"0.0-0.0-1.2"},{"rt":null,"stimulus":"<div style=\"background-color:#ff7157\"><h1 style=\"background-color:Tomato\">Bad luck! There was no prize in the box!</h1><h1 style=\"background-color:Tomato\">Remember, you need to have 20 prizes to finish!</h1><img id=\"box\" src=\"img/sad/purpleopenboxsadthumb.png\"></img></div>","key_press":null,"trial_type":"html-keyboard-response","trial_index":5,"time_elapsed":7454,"internal_node_id":"0.0-0.0-1.2"},{"view_history":"[{\"page_index\":0,\"viewing_time\":1003.3849999890663}]","rt":1003.8049999857321,"trial_type":"instructions","trial_index":6,"time_elapsed":8461,"internal_node_id":"0.0-1.0"},{"rt":533.4849999926519,"stimulus":"<p>Choose a box,</p>","button_pressed":2,"trial_type":"html-button-response","trial_index":7,"time_elapsed":8997,"internal_node_id":"0.0-2.0-0.0"},{"rate":0.357800588914783,"trial_type":"html-keyboard-response","trial_index":8,"time_elapsed":8997,"internal_node_id":"0.0-2.0-1.0"},{"rt":null,"stimulus":"<div style=\"background-color:#ff7157\"><h1 style=\"background-color:Tomato\">Bad luck! There was no prize in the box!</h1><h1 style=\"background-color:Tomato\">Remember, you need to have 20 prizes to finish!</h1><img id=\"box\" src=\"img/sad/purpleopenboxsadthumb.png\"></img></div>","key_press":null,"trial_type":"html-keyboard-response","trial_index":8,"time_elapsed":10499,"internal_node_id":"0.0-2.0-1.0"},{"rt":599.6000000159256,"stimulus":"<p>Choose a box,</p>","button_pressed":3,"trial_type":"html-button-response","trial_index":9,"time_elapsed":11100,"internal_node_id":"0.0-2.1-0.1"},{"rate":0.6941230776872492,"trial_type":"html-keyboard-response","trial_index":10,"time_elapsed":11101,"internal_node_id":"0.0-2.1-1.1"},{"rt":null,"stimulus":"<div style=\"background-color:#ff7157\"><h1 style=\"background-color:Tomato\">Bad luck! There was no prize in the box!</h1><h1 style=\"background-color:Tomato\">Remember, you need to have 20 prizes to finish!</h1><img id=\"box\" src=\"img/sad/redopenboxsadthumb.png\"></img></div>","key_press":null,"trial_type":"html-keyboard-response","trial_index":10,"time_elapsed":12606,"internal_node_id":"0.0-2.1-1.1"},{"rt":475.27000002446584,"stimulus":"<p>Choose a box,</p>","button_pressed":1,"trial_type":"html-button-response","trial_index":11,"time_elapsed":13083,"internal_node_id":"0.0-2.2-0.2"},{"rate":0.123191470943273,"trial_type":"html-keyboard-response","trial_index":12,"time_elapsed":13083,"internal_node_id":"0.0-2.2-1.2"},{"rt":null,"stimulus":"<div style=\"background-color:#ff7157\"><h1 style=\"background-color:Tomato\">Bad luck! There was no prize in the box!</h1><h1 style=\"background-color:Tomato\">Remember, you need to have 20 prizes to finish!</h1><img id=\"box\" src=\"img/sad/greenopenboxsadthumb.png\"></img></div>","key_press":null,"trial_type":"html-keyboard-response","trial_index":12,"time_elapsed":14590,"internal_node_id":"0.0-2.2-1.2"},{"rt":392.94499999959953,"stimulus":"<p>Choose a box,</p>","button_pressed":0,"trial_type":"html-button-response","trial_index":13,"time_elapsed":14985,"internal_node_id":"0.0-2.3-0.3"},{"rate":0.8116778343507473,"trial_type":"html-keyboard-response","trial_index":14,"time_elapsed":14985,"internal_node_id":"0.0-2.3-1.3"},{"rt":null,"stimulus":"<div style=\"background-color:#6dce98\"><h1 style=\"background-color:MediumSeaGreen\" >You won a prize! Well done!</h1><div style=\"background-color:#6dce98\"><h1 style=\"background-color:MediumSeaGreen\" >Only 19 left to go!</h1><img id=\"box\" src=\"img/prizes/duck.png\"></img><img id=\"box\" src=\"img/empty/blueopenbox.png\"></img></div>","key_press":null,"trial_type":"html-keyboard-response","trial_index":14,"time_elapsed":16488,"internal_node_id":"0.0-2.3-1.3"},{"rt":368.51000000024214,"stimulus":"<p>Choose a box,</p>","button_pressed":0,"trial_type":"html-button-response","trial_index":15,"time_elapsed":16859,"internal_node_id":"0.0-2.4-0.4"},{"rate":0.8116778343507473,"trial_type":"html-keyboard-response","trial_index":16,"time_elapsed":16859,"internal_node_id":"0.0-2.4-1.4"},{"rt":null,"stimulus":"<div style=\"background-color:#6dce98\"><h1 style=\"background-color:MediumSeaGreen\" >You won a prize! Well done!</h1><div style=\"background-color:#6dce98\"><h1 style=\"background-color:MediumSeaGreen\" >Only 18 left to go!</h1><img id=\"box\" src=\"img/prizes/choc.png\"></img><img id=\"box\" src=\"img/empty/blueopenbox.png\"></img></div>","key_press":null,"trial_type":"html-keyboard-response","trial_index":16,"time_elapsed":18366,"internal_node_id":"0.0-2.4-1.4"},{"rt":324.63499999721535,"stimulus":"<p>Choose a box,</p>","button_pressed":0,"trial_type":"html-button-response","trial_index":17,"time_elapsed":18692,"internal_node_id":"0.0-2.5-0.5"},{"rate":0.8116778343507473,"trial_type":"html-keyboard-response","trial_index":18,"time_elapsed":18693,"internal_node_id":"0.0-2.5-1.5"},{"rt":null,"stimulus":"<div style=\"background-color:#6dce98\"><h1 style=\"background-color:MediumSeaGreen\" >You won a prize! Well done!</h1><div style=\"background-color:#6dce98\"><h1 style=\"background-color:MediumSeaGreen\" >Only 17 left to go!</h1><img id=\"box\" src=\"img/prizes/beachball.png\"></img><img id=\"box\" src=\"img/empty/blueopenbox.png\"></img></div>","key_press":null,"trial_type":"html-keyboard-response","trial_index":18,"time_elapsed":20194,"internal_node_id":"0.0-2.5-1.5"},{"rt":405.5799999914598,"stimulus":"<p>Choose a box,</p>","button_pressed":0,"trial_type":"html-button-response","trial_index":19,"time_elapsed":20602,"internal_node_id":"0.0-2.6-0.6"},{"rate":0.8116778343507473,"trial_type":"html-keyboard-response","trial_index":20,"time_elapsed":20602,"internal_node_id":"0.0-2.6-1.6"},{"rt":null,"stimulus":"<div style=\"background-color:#6dce98\"><h1 style=\"background-color:MediumSeaGreen\" >You won a prize! Well done!</h1><div style=\"background-color:#6dce98\"><h1 style=\"background-color:MediumSeaGreen\" >Only 16 left to go!</h1><img id=\"box\" src=\"img/prizes/duck.png\"></img><img id=\"box\" src=\"img/empty/blueopenbox.png\"></img></div>","key_press":null,"trial_type":"html-keyboard-response","trial_index":20,"time_elapsed":22109,"internal_node_id":"0.0-2.6-1.6"},{"rt":341.64500000770204,"stimulus":"<p>Choose a box,</p>","button_pressed":0,"trial_type":"html-button-response","trial_index":21,"time_elapsed":22453,"internal_node_id":"0.0-2.7-0.7"},{"rate":0.8116778343507473,"trial_type":"html-keyboard-response","trial_index":22,"time_elapsed":22453,"internal_node_id":"0.0-2.7-1.7"},{"rt":null,"stimulus":"<div style=\"background-color:#6dce98\"><h1 style=\"background-color:MediumSeaGreen\" >You won a prize! Well done!</h1><div style=\"background-color:#6dce98\"><h1 style=\"background-color:MediumSeaGreen\" >Only 15 left to go!</h1><img id=\"box\" src=\"img/prizes/bear.png\"></img><img id=\"box\" src=\"img/empty/blueopenbox.png\"></img></div>","key_press":null,"trial_type":"html-keyboard-response","trial_index":22,"time_elapsed":23955,"internal_node_id":"0.0-2.7-1.7"},{"rt":365.16000001574866,"stimulus":"<p>Choose a box,</p>","button_pressed":0,"trial_type":"html-button-response","trial_index":23,"time_elapsed":24321,"internal_node_id":"0.0-2.8-0.8"},{"rate":0.8116778343507473,"trial_type":"html-keyboard-response","trial_index":24,"time_elapsed":24321,"internal_node_id":"0.0-2.8-1.8"},{"rt":null,"stimulus":"<div style=\"background-color:#ff7157\"><h1 style=\"background-color:Tomato\">Bad luck! There was no prize in the box!</h1><h1 style=\"background-color:Tomato\">Remember, you need to have 20 prizes to finish!</h1><img id=\"box\" src=\"img/sad/blueopenboxsadthumb.png\"></img></div>","key_press":null,"trial_type":"html-keyboard-response","trial_index":24,"time_elapsed":25827,"internal_node_id":"0.0-2.8-1.8"},{"rt":341.4000000047963,"stimulus":"<p>Choose a box,</p>","button_pressed":0,"trial_type":"html-button-response","trial_index":25,"time_elapsed":26170,"internal_node_id":"0.0-2.9-0.9"},{"rate":0.8116778343507473,"trial_type":"html-keyboard-response","trial_index":26,"time_elapsed":26171,"internal_node_id":"0.0-2.9-1.9"},{"rt":null,"stimulus":"<div style=\"background-color:#6dce98\"><h1 style=\"background-color:MediumSeaGreen\" >You won a prize! Well done!</h1><div style=\"background-color:#6dce98\"><h1 style=\"background-color:MediumSeaGreen\" >Only 14 left to go!</h1><img id=\"box\" src=\"img/prizes/bear.png\"></img><img id=\"box\" src=\"img/empty/blueopenbox.png\"></img></div>","key_press":null,"trial_type":"html-keyboard-response","trial_index":26,"time_elapsed":27672,"internal_node_id":"0.0-2.9-1.9"},{"rt":286.5250000031665,"stimulus":"<p>Choose a box,</p>","button_pressed":0,"trial_type":"html-button-response","trial_index":27,"time_elapsed":27961,"internal_node_id":"0.0-2.10-0.10"},{"rate":0.8116778343507473,"trial_type":"html-keyboard-response","trial_index":28,"time_elapsed":27961,"internal_node_id":"0.0-2.10-1.10"},{"rt":null,"stimulus":"<div style=\"background-color:#6dce98\"><h1 style=\"background-color:MediumSeaGreen\" >You won a prize! Well done!</h1><div style=\"background-color:#6dce98\"><h1 style=\"background-color:MediumSeaGreen\" >Only 13 left to go!</h1><img id=\"box\" src=\"img/prizes/bear.png\"></img><img id=\"box\" src=\"img/empty/blueopenbox.png\"></img></div>","key_press":null,"trial_type":"html-keyboard-response","trial_index":28,"time_elapsed":29463,"internal_node_id":"0.0-2.10-1.10"},{"rt":323.6800000013318,"stimulus":"<p>Choose a box,</p>","button_pressed":1,"trial_type":"html-button-response","trial_index":29,"time_elapsed":29789,"internal_node_id":"0.0-2.11-0.11"},{"rate":0.123191470943273,"trial_type":"html-keyboard-response","trial_index":30,"time_elapsed":29789,"internal_node_id":"0.0-2.11-1.11"},{"rt":null,"stimulus":"<div style=\"background-color:#ff7157\"><h1 style=\"background-color:Tomato\">Bad luck! There was no prize in the box!</h1><h1 style=\"background-color:Tomato\">Remember, you need to have 20 prizes to finish!</h1><img id=\"box\" src=\"img/sad/greenopenboxsadthumb.png\"></img></div>","key_press":null,"trial_type":"html-keyboard-response","trial_index":30,"time_elapsed":31294,"internal_node_id":"0.0-2.11-1.11"},{"rt":399.33999997447245,"stimulus":"<p>Choose a box,</p>","button_pressed":1,"trial_type":"html-button-response","trial_index":31,"time_elapsed":31695,"internal_node_id":"0.0-2.12-0.12"},{"rate":0.123191470943273,"trial_type":"html-keyboard-response","trial_index":32,"time_elapsed":31696,"internal_node_id":"0.0-2.12-1.12"},{"rt":null,"stimulus":"<div style=\"background-color:#ff7157\"><h1 style=\"background-color:Tomato\">Bad luck! There was no prize in the box!</h1><h1 style=\"background-color:Tomato\">Remember, you need to have 20 prizes to finish!</h1><img id=\"box\" src=\"img/sad/greenopenboxsadthumb.png\"></img></div>","key_press":null,"trial_type":"html-keyboard-response","trial_index":32,"time_elapsed":33201,"internal_node_id":"0.0-2.12-1.12"},{"rt":173.1949999812059,"stimulus":"<p>Choose a box,</p>","button_pressed":1,"trial_type":"html-button-response","trial_index":33,"time_elapsed":33377,"internal_node_id":"0.0-2.13-0.13"},{"rate":0.123191470943273,"trial_type":"html-keyboard-response","trial_index":34,"time_elapsed":33377,"internal_node_id":"0.0-2.13-1.13"},{"rt":null,"stimulus":"<div style=\"background-color:#ff7157\"><h1 style=\"background-color:Tomato\">Bad luck! There was no prize in the box!</h1><h1 style=\"background-color:Tomato\">Remember, you need to have 20 prizes to finish!</h1><img id=\"box\" src=\"img/sad/greenopenboxsadthumb.png\"></img></div>","key_press":null,"trial_type":"html-keyboard-response","trial_index":34,"time_elapsed":34880,"internal_node_id":"0.0-2.13-1.13"},{"rt":251.79499998921528,"stimulus":"<p>Choose a box,</p>","button_pressed":2,"trial_type":"html-button-response","trial_index":35,"time_elapsed":35135,"internal_node_id":"0.0-2.14-0.14"},{"rate":0.357800588914783,"trial_type":"html-keyboard-response","trial_index":36,"time_elapsed":35135,"internal_node_id":"0.0-2.14-1.14"},{"rt":null,"stimulus":"<div style=\"background-color:#ff7157\"><h1 style=\"background-color:Tomato\">Bad luck! There was no prize in the box!</h1><h1 style=\"background-color:Tomato\">Remember, you need to have 20 prizes to finish!</h1><img id=\"box\" src=\"img/sad/purpleopenboxsadthumb.png\"></img></div>","key_press":null,"trial_type":"html-keyboard-response","trial_index":36,"time_elapsed":36639,"internal_node_id":"0.0-2.14-1.14"},{"rt":362.8150000004098,"stimulus":"<p>Choose a box,</p>","button_pressed":2,"trial_type":"html-button-response","trial_index":37,"time_elapsed":37004,"internal_node_id":"0.0-2.15-0.15"},{"rate":0.357800588914783,"trial_type":"html-keyboard-response","trial_index":38,"time_elapsed":37004,"internal_node_id":"0.0-2.15-1.15"},{"rt":null,"stimulus":"<div style=\"background-color:#6dce98\"><h1 style=\"background-color:MediumSeaGreen\" >You won a prize! Well done!</h1><div style=\"background-color:#6dce98\"><h1 style=\"background-color:MediumSeaGreen\" >Only 12 left to go!</h1><img id=\"box\" src=\"img/prizes/lolipop.png\"></img><img id=\"box\" src=\"img/empty/purpleopenbox.png\"></img></div>","key_press":null,"trial_type":"html-keyboard-response","trial_index":38,"time_elapsed":38507,"internal_node_id":"0.0-2.15-1.15"},{"rt":367.3150000104215,"stimulus":"<p>Choose a box,</p>","button_pressed":2,"trial_type":"html-button-response","trial_index":39,"time_elapsed":38876,"internal_node_id":"0.0-2.16-0.16"},{"rate":0.357800588914783,"trial_type":"html-keyboard-response","trial_index":40,"time_elapsed":38876,"internal_node_id":"0.0-2.16-1.16"},{"rt":null,"stimulus":"<div style=\"background-color:#6dce98\"><h1 style=\"background-color:MediumSeaGreen\" >You won a prize! Well done!</h1><div style=\"background-color:#6dce98\"><h1 style=\"background-color:MediumSeaGreen\" >Only 11 left to go!</h1><img id=\"box\" src=\"img/prizes/ring.png\"></img><img id=\"box\" src=\"img/empty/purpleopenbox.png\"></img></div>","key_press":null,"trial_type":"html-keyboard-response","trial_index":40,"time_elapsed":40382,"internal_node_id":"0.0-2.16-1.16"},{"rt":292.9700000095181,"stimulus":"<p>Choose a box,</p>","button_pressed":2,"trial_type":"html-button-response","trial_index":41,"time_elapsed":40677,"internal_node_id":"0.0-2.17-0.17"},{"rate":0.357800588914783,"trial_type":"html-keyboard-response","trial_index":42,"time_elapsed":40678,"internal_node_id":"0.0-2.17-1.17"},{"rt":null,"stimulus":"<div style=\"background-color:#ff7157\"><h1 style=\"background-color:Tomato\">Bad luck! There was no prize in the box!</h1><h1 style=\"background-color:Tomato\">Remember, you need to have 20 prizes to finish!</h1><img id=\"box\" src=\"img/sad/purpleopenboxsadthumb.png\"></img></div>","key_press":null,"trial_type":"html-keyboard-response","trial_index":42,"time_elapsed":42180,"internal_node_id":"0.0-2.17-1.17"},{"rt":329.93000000715256,"stimulus":"<p>Choose a box,</p>","button_pressed":0,"trial_type":"html-button-response","trial_index":43,"time_elapsed":42512,"internal_node_id":"0.0-2.18-0.18"},{"rate":0.8116778343507473,"trial_type":"html-keyboard-response","trial_index":44,"time_elapsed":42512,"internal_node_id":"0.0-2.18-1.18"},{"rt":null,"stimulus":"<div style=\"background-color:#6dce98\"><h1 style=\"background-color:MediumSeaGreen\" >You won a prize! Well done!</h1><div style=\"background-color:#6dce98\"><h1 style=\"background-color:MediumSeaGreen\" >Only 10 left to go!</h1><img id=\"box\" src=\"img/prizes/duck.png\"></img><img id=\"box\" src=\"img/empty/blueopenbox.png\"></img></div>","key_press":null,"trial_type":"html-keyboard-response","trial_index":44,"time_elapsed":44016,"internal_node_id":"0.0-2.18-1.18"},{"rt":318.02500001504086,"stimulus":"<p>Choose a box,</p>","button_pressed":0,"trial_type":"html-button-response","trial_index":45,"time_elapsed":44336,"internal_node_id":"0.0-2.19-0.19"},{"rate":0.8116778343507473,"trial_type":"html-keyboard-response","trial_index":46,"time_elapsed":44337,"internal_node_id":"0.0-2.19-1.19"},{"rt":null,"stimulus":"<div style=\"background-color:#6dce98\"><h1 style=\"background-color:MediumSeaGreen\" >You won a prize! Well done!</h1><div style=\"background-color:#6dce98\"><h1 style=\"background-color:MediumSeaGreen\" >Only 9 left to go!</h1><img id=\"box\" src=\"img/prizes/flowers.png\"></img><img id=\"box\" src=\"img/empty/blueopenbox.png\"></img></div>","key_press":null,"trial_type":"html-keyboard-response","trial_index":46,"time_elapsed":45839,"internal_node_id":"0.0-2.19-1.19"},{"rt":377.3849999997765,"stimulus":"<p>Choose a box,</p>","button_pressed":0,"trial_type":"html-button-response","trial_index":47,"time_elapsed":46219,"internal_node_id":"0.0-2.20-0.20"},{"rate":0.8116778343507473,"trial_type":"html-keyboard-response","trial_index":48,"time_elapsed":46219,"internal_node_id":"0.0-2.20-1.20"},{"rt":null,"stimulus":"<div style=\"background-color:#6dce98\"><h1 style=\"background-color:MediumSeaGreen\" >You won a prize! Well done!</h1><div style=\"background-color:#6dce98\"><h1 style=\"background-color:MediumSeaGreen\" >Only 8 left to go!</h1><img id=\"box\" src=\"img/prizes/ring.png\"></img><img id=\"box\" src=\"img/empty/blueopenbox.png\"></img></div>","key_press":null,"trial_type":"html-keyboard-response","trial_index":48,"time_elapsed":47721,"internal_node_id":"0.0-2.20-1.20"},{"rt":719.859999982873,"stimulus":"<p>Choose a box,</p>","button_pressed":0,"trial_type":"html-button-response","trial_index":49,"time_elapsed":48443,"internal_node_id":"0.0-2.21-0.21"},{"rate":0.8116778343507473,"trial_type":"html-keyboard-response","trial_index":50,"time_elapsed":48443,"internal_node_id":"0.0-2.21-1.21"},{"rt":null,"stimulus":"<div style=\"background-color:#6dce98\"><h1 style=\"background-color:MediumSeaGreen\" >You won a prize! Well done!</h1><div style=\"background-color:#6dce98\"><h1 style=\"background-color:MediumSeaGreen\" >Only 7 left to go!</h1><img id=\"box\" src=\"img/prizes/bear.png\"></img><img id=\"box\" src=\"img/empty/blueopenbox.png\"></img></div>","key_press":null,"trial_type":"html-keyboard-response","trial_index":50,"time_elapsed":49949,"internal_node_id":"0.0-2.21-1.21"},{"rt":208.99500002269633,"stimulus":"<p>Choose a box,</p>","button_pressed":0,"trial_type":"html-button-response","trial_index":51,"time_elapsed":50161,"internal_node_id":"0.0-2.22-0.22"},{"rate":0.8116778343507473,"trial_type":"html-keyboard-response","trial_index":52,"time_elapsed":50161,"internal_node_id":"0.0-2.22-1.22"},{"rt":null,"stimulus":"<div style=\"background-color:#6dce98\"><h1 style=\"background-color:MediumSeaGreen\" >You won a prize! Well done!</h1><div style=\"background-color:#6dce98\"><h1 style=\"background-color:MediumSeaGreen\" >Only 6 left to go!</h1><img id=\"box\" src=\"img/prizes/choc.png\"></img><img id=\"box\" src=\"img/empty/blueopenbox.png\"></img></div>","key_press":null,"trial_type":"html-keyboard-response","trial_index":52,"time_elapsed":51667,"internal_node_id":"0.0-2.22-1.22"},{"rt":523.3299999963492,"stimulus":"<p>Choose a box,</p>","button_pressed":0,"trial_type":"html-button-response","trial_index":53,"time_elapsed":52192,"internal_node_id":"0.0-2.23-0.23"},{"rate":0.8116778343507473,"trial_type":"html-keyboard-response","trial_index":54,"time_elapsed":52193,"internal_node_id":"0.0-2.23-1.23"},{"rt":null,"stimulus":"<div style=\"background-color:#6dce98\"><h1 style=\"background-color:MediumSeaGreen\" >You won a prize! Well done!</h1><div style=\"background-color:#6dce98\"><h1 style=\"background-color:MediumSeaGreen\" >Only 5 left to go!</h1><img id=\"box\" src=\"img/prizes/flowers.png\"></img><img id=\"box\" src=\"img/empty/blueopenbox.png\"></img></div>","key_press":null,"trial_type":"html-keyboard-response","trial_index":54,"time_elapsed":53694,"internal_node_id":"0.0-2.23-1.23"},{"rt":386.37500000186265,"stimulus":"<p>Choose a box,</p>","button_pressed":0,"trial_type":"html-button-response","trial_index":55,"time_elapsed":54082,"internal_node_id":"0.0-2.24-0.24"},{"rate":0.8116778343507473,"trial_type":"html-keyboard-response","trial_index":56,"time_elapsed":54083,"internal_node_id":"0.0-2.24-1.24"},{"rt":null,"stimulus":"<div style=\"background-color:#6dce98\"><h1 style=\"background-color:MediumSeaGreen\" >You won a prize! Well done!</h1><div style=\"background-color:#6dce98\"><h1 style=\"background-color:MediumSeaGreen\" >Only 4 left to go!</h1><img id=\"box\" src=\"img/prizes/lolipop.png\"></img><img id=\"box\" src=\"img/empty/blueopenbox.png\"></img></div>","key_press":null,"trial_type":"html-keyboard-response","trial_index":56,"time_elapsed":55588,"internal_node_id":"0.0-2.24-1.24"},{"rt":366.150000016205,"stimulus":"<p>Choose a box,</p>","button_pressed":0,"trial_type":"html-button-response","trial_index":57,"time_elapsed":55959,"internal_node_id":"0.0-2.25-0.25"},{"rate":0.8116778343507473,"trial_type":"html-keyboard-response","trial_index":58,"time_elapsed":55959,"internal_node_id":"0.0-2.25-1.25"},{"rt":null,"stimulus":"<div style=\"background-color:#6dce98\"><h1 style=\"background-color:MediumSeaGreen\" >You won a prize! Well done!</h1><div style=\"background-color:#6dce98\"><h1 style=\"background-color:MediumSeaGreen\" >Only 3 left to go!</h1><img id=\"box\" src=\"img/prizes/coins.png\"></img><img id=\"box\" src=\"img/empty/blueopenbox.png\"></img></div>","key_press":null,"trial_type":"html-keyboard-response","trial_index":58,"time_elapsed":57461,"internal_node_id":"0.0-2.25-1.25"},{"rt":362.03000001842156,"stimulus":"<p>Choose a box,</p>","button_pressed":0,"trial_type":"html-button-response","trial_index":59,"time_elapsed":57825,"internal_node_id":"0.0-2.26-0.26"},{"rate":0.8116778343507473,"trial_type":"html-keyboard-response","trial_index":60,"time_elapsed":57826,"internal_node_id":"0.0-2.26-1.26"},{"rt":null,"stimulus":"<div style=\"background-color:#ff7157\"><h1 style=\"background-color:Tomato\">Bad luck! There was no prize in the box!</h1><h1 style=\"background-color:Tomato\">Remember, you need to have 20 prizes to finish!</h1><img id=\"box\" src=\"img/sad/blueopenboxsadthumb.png\"></img></div>","key_press":null,"trial_type":"html-keyboard-response","trial_index":60,"time_elapsed":59328,"internal_node_id":"0.0-2.26-1.26"},{"rt":412.33500000089407,"stimulus":"<p>Choose a box,</p>","button_pressed":0,"trial_type":"html-button-response","trial_index":61,"time_elapsed":59742,"internal_node_id":"0.0-2.27-0.27"},{"rate":0.8116778343507473,"trial_type":"html-keyboard-response","trial_index":62,"time_elapsed":59743,"internal_node_id":"0.0-2.27-1.27"},{"rt":null,"stimulus":"<div style=\"background-color:#6dce98\"><h1 style=\"background-color:MediumSeaGreen\" >You won a prize! Well done!</h1><div style=\"background-color:#6dce98\"><h1 style=\"background-color:MediumSeaGreen\" >Only 2 left to go!</h1><img id=\"box\" src=\"img/prizes/yoyo.png\"></img><img id=\"box\" src=\"img/empty/blueopenbox.png\"></img></div>","key_press":null,"trial_type":"html-keyboard-response","trial_index":62,"time_elapsed":61245,"internal_node_id":"0.0-2.27-1.27"},{"rt":468.31999998539686,"stimulus":"<p>Choose a box,</p>","button_pressed":0,"trial_type":"html-button-response","trial_index":63,"time_elapsed":61716,"internal_node_id":"0.0-2.28-0.28"},{"rate":0.8116778343507473,"trial_type":"html-keyboard-response","trial_index":64,"time_elapsed":61716,"internal_node_id":"0.0-2.28-1.28"},{"rt":null,"stimulus":"<div style=\"background-color:#6dce98\"><h1 style=\"background-color:MediumSeaGreen\" >You won a prize! Well done!</h1><div style=\"background-color:#6dce98\"><h1 style=\"background-color:MediumSeaGreen\" >Only 1 left to go!</h1><img id=\"box\" src=\"img/prizes/ring.png\"></img><img id=\"box\" src=\"img/empty/blueopenbox.png\"></img></div>","key_press":null,"trial_type":"html-keyboard-response","trial_index":64,"time_elapsed":63224,"internal_node_id":"0.0-2.28-1.28"},{"rt":356.1300000001211,"stimulus":"<p>Choose a box,</p>","button_pressed":0,"trial_type":"html-button-response","trial_index":65,"time_elapsed":63582,"internal_node_id":"0.0-2.29-0.29"},{"rate":0.8116778343507473,"trial_type":"html-keyboard-response","trial_index":66,"time_elapsed":63582,"internal_node_id":"0.0-2.29-1.29"},{"rt":null,"stimulus":"<div style=\"background-color:#6dce98\"><h1 style=\"background-color:MediumSeaGreen\" >You won a prize! Well done!</h1><div style=\"background-color:#6dce98\"><h1 style=\"background-color:MediumSeaGreen\" >Only 0 left to go!</h1><img id=\"box\" src=\"img/prizes/ring.png\"></img><img id=\"box\" src=\"img/empty/blueopenbox.png\"></img></div>","key_press":null,"trial_type":"html-keyboard-response","trial_index":66,"time_elapsed":65089,"internal_node_id":"0.0-2.29-1.29"},{"rt":23394.84499997343,"responses":"{\"Q0\":\"I thought it was good. It was really easy\",\"Q1\":\"I was clicking randomly but realised the blue was best.\"}","trial_type":"survey-text","trial_index":67,"time_elapsed":88500,"internal_node_id":"0.0-3.0"}]