[{"view_history":"[{\"page_index\":0,\"viewing_time\":43555},{\"page_index\":1,\"viewing_time\":12743},{\"page_index\":2,\"viewing_time\":25177},{\"page_index\":3,\"viewing_time\":67462},{\"page_index\":4,\"viewing_time\":3836},{\"page_index\":5,\"viewing_time\":2760}]","rt":155534,"trial_type":"instructions","trial_index":0,"time_elapsed":155550,"internal_node_id":"0.0-0.0"},{"rt":8873,"responses":"{\"Q0\":\"Yes\",\"Q1\":\"Yes\",\"Q2\":\"Yes\"}","question_order":"[0,1,2]","trial_type":"survey-multi-choice","trial_index":1,"time_elapsed":164441,"internal_node_id":"0.0-1.0-0.0"},{"rt":27123,"responses":"{\"Q0\":\"Yes\",\"Q1\":\"Yes\",\"Q2\":\"Yes\"}","question_order":"[0,1,2]","trial_type":"survey-multi-choice","trial_index":2,"time_elapsed":191573,"internal_node_id":"0.0-2.0-0.0"},{"rt":7265,"responses":"{\"Q0\":\"5ef08399cd9cde0ad2e088f1\"}","trial_type":"survey-text","trial_index":3,"time_elapsed":198865,"internal_node_id":"0.0-3.0"},{"rt":5465,"responses":"{\"Q0\":\"Female\",\"Q1\":\"18-25\"}","question_order":"[0,1]","trial_type":"survey-multi-choice","trial_index":4,"time_elapsed":204338,"internal_node_id":"0.0-4.0"},{"rt":8962,"responses":"{\"Q0\":\"\"}","trial_type":"survey-text","trial_index":5,"time_elapsed":213313,"internal_node_id":"0.0-5.0"},{"view_history":"[{\"page_index\":0,\"viewing_time\":4353}]","rt":4354,"trial_type":"instructions","trial_index":6,"time_elapsed":217668,"internal_node_id":"0.0-6.0"},{"rt":10583,"responses":"{\"Interested\":2,\"Distressed\":3,\"Excited\":2,\"Upset\":3}","question_order":"[0,1,2,3]","trial_type":"survey-likert","trial_index":7,"time_elapsed":228263,"internal_node_id":"0.0-7.0"},{"rt":11907,"responses":"{\"Strong\":1,\"Guilty\":3,\"Scared\":3,\"Hostile\":2}","question_order":"[0,1,2,3]","trial_type":"survey-likert","trial_index":8,"time_elapsed":240185,"internal_node_id":"0.0-8.0"},{"rt":8365,"responses":"{\"Enthusiastic\":1,\"Proud\":1,\"Irritable\":3,\"Alert\":2}","question_order":"[0,1,2,3]","trial_type":"survey-likert","trial_index":9,"time_elapsed":248565,"internal_node_id":"0.0-9.0"},{"rt":8863,"responses":"{\"Ashamed\":3,\"Inspired\":2,\"Nervous\":3,\"Determined\":2}","question_order":"[0,1,2,3]","trial_type":"survey-likert","trial_index":10,"time_elapsed":257439,"internal_node_id":"0.0-10.0"},{"rt":7089,"responses":"{\"Attentive\":2,\"Jittery\":2,\"Active\":2,\"Afraid\":3}","question_order":"[0,1,2,3]","trial_type":"survey-likert","trial_index":11,"time_elapsed":264539,"internal_node_id":"0.0-11.0"},{"rt":14481,"responses":"{\"Q0\":1,\"Q1\":2,\"Q2\":2,\"Q3\":1}","question_order":"[0,1,2,3]","trial_type":"survey-likert","trial_index":12,"time_elapsed":279031,"internal_node_id":"0.0-12.0"},{"rt":20947,"responses":"{\"Q0\":0,\"Q1\":2,\"Q2\":1,\"Q3\":1}","question_order":"[0,1,2,3]","trial_type":"survey-likert","trial_index":13,"time_elapsed":299989,"internal_node_id":"0.0-13.0"},{"rt":8044,"responses":"{\"Q0\":2,\"Q1\":2,\"Q2\":2,\"Q3\":2}","question_order":"[0,1,2,3]","trial_type":"survey-likert","trial_index":14,"time_elapsed":308047,"internal_node_id":"0.0-14.0"},{"rt":7294,"responses":"{\"Q0\":2,\"Q1\":2,\"Q2\":2}","question_order":"[0,1,2]","trial_type":"survey-likert","trial_index":15,"time_elapsed":315349,"internal_node_id":"0.0-15.0"},{"view_history":"[{\"page_index\":0,\"viewing_time\":3476},{\"page_index\":1,\"viewing_time\":15098},{\"page_index\":2,\"viewing_time\":23217}]","rt":41792,"trial_type":"instructions","trial_index":16,"time_elapsed":357146,"internal_node_id":"0.0-16.0"},{"rt":3115,"stimulus":"<p>Choose a box,</p>","button_pressed":2,"trial_type":"html-button-response","trial_index":17,"time_elapsed":360270,"internal_node_id":"0.0-17.0-0.0"},{"reward":50,"trial_type":"html-keyboard-response","trial_index":18,"time_elapsed":360273,"internal_node_id":"0.0-17.0-1.0"},{"penalty":50,"trial_type":"html-keyboard-response","trial_index":18,"time_elapsed":360273,"internal_node_id":"0.0-17.0-1.0"},{"fined":true,"trial_type":"html-keyboard-response","trial_index":18,"time_elapsed":360273,"internal_node_id":"0.0-17.0-1.0"},{"rt":null,"stimulus":"<div style=\"background-color:#ff7157\"><h1 style=\"background-color:MediumSeaGreen\">You earned 50 coins</h1><h1 h1 style=\"background-color:Tomato\">but you have recieved a fine of 50 coins</h1><h1 style=\"background-color:Tomato\">Remember, you need to keep going until you have 3000 coins!</h1><img id=\"box\" src=\"img/prizes/50.png\"></img><img id=\"box\" src=\"img/sad/purpleopenboxsadthumb.png\"></img></div>","key_press":null,"trial_type":"html-keyboard-response","trial_index":18,"time_elapsed":363298,"internal_node_id":"0.0-17.0-1.0"},{"rt":1440,"stimulus":"<p>Choose a box,</p>","button_pressed":1,"trial_type":"html-button-response","trial_index":19,"time_elapsed":364746,"internal_node_id":"0.0-17.0-0.1"},{"reward":100,"trial_type":"html-keyboard-response","trial_index":20,"time_elapsed":364747,"internal_node_id":"0.0-17.0-1.1"},{"penalty":1250,"trial_type":"html-keyboard-response","trial_index":20,"time_elapsed":364747,"internal_node_id":"0.0-17.0-1.1"},{"fined":false,"trial_type":"html-keyboard-response","trial_index":20,"time_elapsed":364747,"internal_node_id":"0.0-17.0-1.1"},{"rt":null,"stimulus":"<div style=\"background-color:#6dce98\"><h1 style=\"background-color:MediumSeaGreen\" >You earned 100 coins! Well done!</h1><div style=\"background-color:#6dce98\"><h1 style=\"background-color:MediumSeaGreen\" >Only 1400 left to go!</h1><img id=\"box\" src=\"img/prizes/coins2.png\"></img><img id=\"box\" src=\"img/empty/greenopenbox.png\"></img></div>","key_press":null,"trial_type":"html-keyboard-response","trial_index":20,"time_elapsed":367756,"internal_node_id":"0.0-17.0-1.1"},{"rt":1171,"stimulus":"<p>Choose a box,</p>","button_pressed":0,"trial_type":"html-button-response","trial_index":21,"time_elapsed":368932,"internal_node_id":"0.0-17.0-0.2"},{"reward":100,"trial_type":"html-keyboard-response","trial_index":22,"time_elapsed":368933,"internal_node_id":"0.0-17.0-1.2"},{"penalty":250,"trial_type":"html-keyboard-response","trial_index":22,"time_elapsed":368933,"internal_node_id":"0.0-17.0-1.2"},{"fined":false,"trial_type":"html-keyboard-response","trial_index":22,"time_elapsed":368933,"internal_node_id":"0.0-17.0-1.2"},{"rt":null,"stimulus":"<div style=\"background-color:#6dce98\"><h1 style=\"background-color:MediumSeaGreen\" >You earned 100 coins! Well done!</h1><div style=\"background-color:#6dce98\"><h1 style=\"background-color:MediumSeaGreen\" >Only 1300 left to go!</h1><img id=\"box\" src=\"img/prizes/coins2.png\"></img><img id=\"box\" src=\"img/empty/blueopenbox.png\"></img></div>","key_press":null,"trial_type":"html-keyboard-response","trial_index":22,"time_elapsed":371958,"internal_node_id":"0.0-17.0-1.2"},{"view_history":"[{\"page_index\":0,\"viewing_time\":10578}]","rt":10580,"trial_type":"instructions","trial_index":23,"time_elapsed":382539,"internal_node_id":"0.0-18.0"},{"rt":746,"stimulus":"<p>Choose a box,</p>","button_pressed":1,"trial_type":"html-button-response","trial_index":24,"time_elapsed":383293,"internal_node_id":"0.0-19.0-0.0"},{"reward":100,"trial_type":"html-keyboard-response","trial_index":25,"time_elapsed":383294,"internal_node_id":"0.0-19.0-1.0"},{"penalty":1250,"trial_type":"html-keyboard-response","trial_index":25,"time_elapsed":383294,"internal_node_id":"0.0-19.0-1.0"},{"fined":false,"trial_type":"html-keyboard-response","trial_index":25,"time_elapsed":383294,"internal_node_id":"0.0-19.0-1.0"},{"rt":null,"stimulus":"<div style=\"background-color:#6dce98\"><h1 style=\"background-color:MediumSeaGreen\" >You earned 100 coins! Well done!</h1><div style=\"background-color:#6dce98\"><h1 style=\"background-color:MediumSeaGreen\" >Only 1400 left to go!</h1><img id=\"box\" src=\"img/prizes/coins2.png\"></img><img id=\"box\" src=\"img/empty/greenopenbox.png\"></img></div>","key_press":null,"trial_type":"html-keyboard-response","trial_index":25,"time_elapsed":386316,"internal_node_id":"0.0-19.0-1.0"},{"rt":1158,"stimulus":"<p>Choose a box,</p>","button_pressed":2,"trial_type":"html-button-response","trial_index":26,"time_elapsed":387483,"internal_node_id":"0.0-19.1-0.1"},{"reward":50,"trial_type":"html-keyboard-response","trial_index":27,"time_elapsed":387484,"internal_node_id":"0.0-19.1-1.1"},{"penalty":50,"trial_type":"html-keyboard-response","trial_index":27,"time_elapsed":387484,"internal_node_id":"0.0-19.1-1.1"},{"fined":true,"trial_type":"html-keyboard-response","trial_index":27,"time_elapsed":387484,"internal_node_id":"0.0-19.1-1.1"},{"rt":null,"stimulus":"<div style=\"background-color:#ff7157\"><h1 style=\"background-color:MediumSeaGreen\">You earned 50 coins</h1><h1 h1 style=\"background-color:Tomato\">but you have recieved a fine of 50 coins</h1><h1 style=\"background-color:Tomato\">Remember, you need to keep going until you have 3000 coins!</h1><img id=\"box\" src=\"img/prizes/50.png\"></img><img id=\"box\" src=\"img/sad/purpleopenboxsadthumb.png\"></img></div>","key_press":null,"trial_type":"html-keyboard-response","trial_index":27,"time_elapsed":390507,"internal_node_id":"0.0-19.1-1.1"},{"rt":787,"stimulus":"<p>Choose a box,</p>","button_pressed":0,"trial_type":"html-button-response","trial_index":28,"time_elapsed":391299,"internal_node_id":"0.0-19.2-0.2"},{"reward":100,"trial_type":"html-keyboard-response","trial_index":29,"time_elapsed":391300,"internal_node_id":"0.0-19.2-1.2"},{"penalty":250,"trial_type":"html-keyboard-response","trial_index":29,"time_elapsed":391300,"internal_node_id":"0.0-19.2-1.2"},{"fined":false,"trial_type":"html-keyboard-response","trial_index":29,"time_elapsed":391300,"internal_node_id":"0.0-19.2-1.2"},{"rt":null,"stimulus":"<div style=\"background-color:#6dce98\"><h1 style=\"background-color:MediumSeaGreen\" >You earned 100 coins! Well done!</h1><div style=\"background-color:#6dce98\"><h1 style=\"background-color:MediumSeaGreen\" >Only 1300 left to go!</h1><img id=\"box\" src=\"img/prizes/coins2.png\"></img><img id=\"box\" src=\"img/empty/blueopenbox.png\"></img></div>","key_press":null,"trial_type":"html-keyboard-response","trial_index":29,"time_elapsed":394317,"internal_node_id":"0.0-19.2-1.2"},{"rt":1209,"stimulus":"<p>Choose a box,</p>","button_pressed":3,"trial_type":"html-button-response","trial_index":30,"time_elapsed":395532,"internal_node_id":"0.0-19.3-0.3"},{"reward":50,"trial_type":"html-keyboard-response","trial_index":31,"time_elapsed":395533,"internal_node_id":"0.0-19.3-1.3"},{"penalty":250,"trial_type":"html-keyboard-response","trial_index":31,"time_elapsed":395533,"internal_node_id":"0.0-19.3-1.3"},{"fined":true,"trial_type":"html-keyboard-response","trial_index":31,"time_elapsed":395533,"internal_node_id":"0.0-19.3-1.3"},{"rt":null,"stimulus":"<div style=\"background-color:#ff7157\"><h1 style=\"background-color:MediumSeaGreen\">You earned 50 coins</h1><h1 h1 style=\"background-color:Tomato\">but you have recieved a fine of 250 coins</h1><h1 style=\"background-color:Tomato\">Remember, you need to keep going until you have 3000 coins!</h1><img id=\"box\" src=\"img/prizes/250.png\"></img><img id=\"box\" src=\"img/sad/redopenboxsadthumb.png\"></img></div>","key_press":null,"trial_type":"html-keyboard-response","trial_index":31,"time_elapsed":398559,"internal_node_id":"0.0-19.3-1.3"},{"rt":583,"stimulus":"<p>Choose a box,</p>","button_pressed":1,"trial_type":"html-button-response","trial_index":32,"time_elapsed":399151,"internal_node_id":"0.0-19.4-0.4"},{"reward":100,"trial_type":"html-keyboard-response","trial_index":33,"time_elapsed":399151,"internal_node_id":"0.0-19.4-1.4"},{"penalty":1250,"trial_type":"html-keyboard-response","trial_index":33,"time_elapsed":399151,"internal_node_id":"0.0-19.4-1.4"},{"fined":false,"trial_type":"html-keyboard-response","trial_index":33,"time_elapsed":399151,"internal_node_id":"0.0-19.4-1.4"},{"rt":null,"stimulus":"<div style=\"background-color:#6dce98\"><h1 style=\"background-color:MediumSeaGreen\" >You earned 100 coins! Well done!</h1><div style=\"background-color:#6dce98\"><h1 style=\"background-color:MediumSeaGreen\" >Only 1400 left to go!</h1><img id=\"box\" src=\"img/prizes/coins2.png\"></img><img id=\"box\" src=\"img/empty/greenopenbox.png\"></img></div>","key_press":null,"trial_type":"html-keyboard-response","trial_index":33,"time_elapsed":402168,"internal_node_id":"0.0-19.4-1.4"},{"rt":614,"stimulus":"<p>Choose a box,</p>","button_pressed":1,"trial_type":"html-button-response","trial_index":34,"time_elapsed":402789,"internal_node_id":"0.0-19.5-0.5"},{"reward":100,"trial_type":"html-keyboard-response","trial_index":35,"time_elapsed":402789,"internal_node_id":"0.0-19.5-1.5"},{"penalty":1250,"trial_type":"html-keyboard-response","trial_index":35,"time_elapsed":402790,"internal_node_id":"0.0-19.5-1.5"},{"fined":false,"trial_type":"html-keyboard-response","trial_index":35,"time_elapsed":402790,"internal_node_id":"0.0-19.5-1.5"},{"rt":null,"stimulus":"<div style=\"background-color:#6dce98\"><h1 style=\"background-color:MediumSeaGreen\" >You earned 100 coins! Well done!</h1><div style=\"background-color:#6dce98\"><h1 style=\"background-color:MediumSeaGreen\" >Only 1300 left to go!</h1><img id=\"box\" src=\"img/prizes/coins2.png\"></img><img id=\"box\" src=\"img/empty/greenopenbox.png\"></img></div>","key_press":null,"trial_type":"html-keyboard-response","trial_index":35,"time_elapsed":405798,"internal_node_id":"0.0-19.5-1.5"},{"rt":576,"stimulus":"<p>Choose a box,</p>","button_pressed":0,"trial_type":"html-button-response","trial_index":36,"time_elapsed":406383,"internal_node_id":"0.0-19.6-0.6"},{"reward":100,"trial_type":"html-keyboard-response","trial_index":37,"time_elapsed":406385,"internal_node_id":"0.0-19.6-1.6"},{"penalty":250,"trial_type":"html-keyboard-response","trial_index":37,"time_elapsed":406385,"internal_node_id":"0.0-19.6-1.6"},{"fined":true,"trial_type":"html-keyboard-response","trial_index":37,"time_elapsed":406385,"internal_node_id":"0.0-19.6-1.6"},{"rt":null,"stimulus":"<div style=\"background-color:#ff7157\"><h1 style=\"background-color:MediumSeaGreen\">You earned 100 coins</h1><h1 h1 style=\"background-color:Tomato\">but you have recieved a fine of 250 coins</h1><h1 style=\"background-color:Tomato\">Remember, you need to keep going until you have 3000 coins!</h1><img id=\"box\" src=\"img/prizes/250.png\"></img><img id=\"box\" src=\"img/sad/blueopenboxsadthumb.png\"></img></div>","key_press":null,"trial_type":"html-keyboard-response","trial_index":37,"time_elapsed":409409,"internal_node_id":"0.0-19.6-1.6"},{"rt":734,"stimulus":"<p>Choose a box,</p>","button_pressed":1,"trial_type":"html-button-response","trial_index":38,"time_elapsed":410148,"internal_node_id":"0.0-19.7-0.7"},{"reward":100,"trial_type":"html-keyboard-response","trial_index":39,"time_elapsed":410149,"internal_node_id":"0.0-19.7-1.7"},{"penalty":1250,"trial_type":"html-keyboard-response","trial_index":39,"time_elapsed":410149,"internal_node_id":"0.0-19.7-1.7"},{"fined":false,"trial_type":"html-keyboard-response","trial_index":39,"time_elapsed":410149,"internal_node_id":"0.0-19.7-1.7"},{"rt":null,"stimulus":"<div style=\"background-color:#6dce98\"><h1 style=\"background-color:MediumSeaGreen\" >You earned 100 coins! Well done!</h1><div style=\"background-color:#6dce98\"><h1 style=\"background-color:MediumSeaGreen\" >Only 1350 left to go!</h1><img id=\"box\" src=\"img/prizes/coins2.png\"></img><img id=\"box\" src=\"img/empty/greenopenbox.png\"></img></div>","key_press":null,"trial_type":"html-keyboard-response","trial_index":39,"time_elapsed":413168,"internal_node_id":"0.0-19.7-1.7"},{"rt":486,"stimulus":"<p>Choose a box,</p>","button_pressed":1,"trial_type":"html-button-response","trial_index":40,"time_elapsed":413661,"internal_node_id":"0.0-19.8-0.8"},{"reward":100,"trial_type":"html-keyboard-response","trial_index":41,"time_elapsed":413662,"internal_node_id":"0.0-19.8-1.8"},{"penalty":1250,"trial_type":"html-keyboard-response","trial_index":41,"time_elapsed":413662,"internal_node_id":"0.0-19.8-1.8"},{"fined":false,"trial_type":"html-keyboard-response","trial_index":41,"time_elapsed":413662,"internal_node_id":"0.0-19.8-1.8"},{"rt":null,"stimulus":"<div style=\"background-color:#6dce98\"><h1 style=\"background-color:MediumSeaGreen\" >You earned 100 coins! Well done!</h1><div style=\"background-color:#6dce98\"><h1 style=\"background-color:MediumSeaGreen\" >Only 1250 left to go!</h1><img id=\"box\" src=\"img/prizes/coins2.png\"></img><img id=\"box\" src=\"img/empty/greenopenbox.png\"></img></div>","key_press":null,"trial_type":"html-keyboard-response","trial_index":41,"time_elapsed":416677,"internal_node_id":"0.0-19.8-1.8"},{"rt":441,"stimulus":"<p>Choose a box,</p>","button_pressed":1,"trial_type":"html-button-response","trial_index":42,"time_elapsed":417125,"internal_node_id":"0.0-19.9-0.9"},{"reward":100,"trial_type":"html-keyboard-response","trial_index":43,"time_elapsed":417125,"internal_node_id":"0.0-19.9-1.9"},{"penalty":1250,"trial_type":"html-keyboard-response","trial_index":43,"time_elapsed":417125,"internal_node_id":"0.0-19.9-1.9"},{"fined":false,"trial_type":"html-keyboard-response","trial_index":43,"time_elapsed":417125,"internal_node_id":"0.0-19.9-1.9"},{"rt":null,"stimulus":"<div style=\"background-color:#6dce98\"><h1 style=\"background-color:MediumSeaGreen\" >You earned 100 coins! Well done!</h1><div style=\"background-color:#6dce98\"><h1 style=\"background-color:MediumSeaGreen\" >Only 1150 left to go!</h1><img id=\"box\" src=\"img/prizes/coins2.png\"></img><img id=\"box\" src=\"img/empty/greenopenbox.png\"></img></div>","key_press":null,"trial_type":"html-keyboard-response","trial_index":43,"time_elapsed":420141,"internal_node_id":"0.0-19.9-1.9"},{"rt":500,"stimulus":"<p>Choose a box,</p>","button_pressed":3,"trial_type":"html-button-response","trial_index":44,"time_elapsed":420644,"internal_node_id":"0.0-19.10-0.10"},{"reward":50,"trial_type":"html-keyboard-response","trial_index":45,"time_elapsed":420645,"internal_node_id":"0.0-19.10-1.10"},{"penalty":250,"trial_type":"html-keyboard-response","trial_index":45,"time_elapsed":420645,"internal_node_id":"0.0-19.10-1.10"},{"fined":true,"trial_type":"html-keyboard-response","trial_index":45,"time_elapsed":420645,"internal_node_id":"0.0-19.10-1.10"},{"rt":null,"stimulus":"<div style=\"background-color:#ff7157\"><h1 style=\"background-color:MediumSeaGreen\">You earned 50 coins</h1><h1 h1 style=\"background-color:Tomato\">but you have recieved a fine of 250 coins</h1><h1 style=\"background-color:Tomato\">Remember, you need to keep going until you have 3000 coins!</h1><img id=\"box\" src=\"img/prizes/250.png\"></img><img id=\"box\" src=\"img/sad/redopenboxsadthumb.png\"></img></div>","key_press":null,"trial_type":"html-keyboard-response","trial_index":45,"time_elapsed":423659,"internal_node_id":"0.0-19.10-1.10"},{"rt":509,"stimulus":"<p>Choose a box,</p>","button_pressed":1,"trial_type":"html-button-response","trial_index":46,"time_elapsed":424174,"internal_node_id":"0.0-19.11-0.11"},{"reward":100,"trial_type":"html-keyboard-response","trial_index":47,"time_elapsed":424176,"internal_node_id":"0.0-19.11-1.11"},{"penalty":1250,"trial_type":"html-keyboard-response","trial_index":47,"time_elapsed":424176,"internal_node_id":"0.0-19.11-1.11"},{"fined":false,"trial_type":"html-keyboard-response","trial_index":47,"time_elapsed":424178,"internal_node_id":"0.0-19.11-1.11"},{"rt":null,"stimulus":"<div style=\"background-color:#6dce98\"><h1 style=\"background-color:MediumSeaGreen\" >You earned 100 coins! Well done!</h1><div style=\"background-color:#6dce98\"><h1 style=\"background-color:MediumSeaGreen\" >Only 1250 left to go!</h1><img id=\"box\" src=\"img/prizes/coins2.png\"></img><img id=\"box\" src=\"img/empty/greenopenbox.png\"></img></div>","key_press":null,"trial_type":"html-keyboard-response","trial_index":47,"time_elapsed":427196,"internal_node_id":"0.0-19.11-1.11"},{"rt":522,"stimulus":"<p>Choose a box,</p>","button_pressed":2,"trial_type":"html-button-response","trial_index":48,"time_elapsed":427724,"internal_node_id":"0.0-19.12-0.12"},{"reward":50,"trial_type":"html-keyboard-response","trial_index":49,"time_elapsed":427724,"internal_node_id":"0.0-19.12-1.12"},{"penalty":50,"trial_type":"html-keyboard-response","trial_index":49,"time_elapsed":427724,"internal_node_id":"0.0-19.12-1.12"},{"fined":true,"trial_type":"html-keyboard-response","trial_index":49,"time_elapsed":427724,"internal_node_id":"0.0-19.12-1.12"},{"rt":null,"stimulus":"<div style=\"background-color:#ff7157\"><h1 style=\"background-color:MediumSeaGreen\">You earned 50 coins</h1><h1 h1 style=\"background-color:Tomato\">but you have recieved a fine of 50 coins</h1><h1 style=\"background-color:Tomato\">Remember, you need to keep going until you have 3000 coins!</h1><img id=\"box\" src=\"img/prizes/50.png\"></img><img id=\"box\" src=\"img/sad/purpleopenboxsadthumb.png\"></img></div>","key_press":null,"trial_type":"html-keyboard-response","trial_index":49,"time_elapsed":430749,"internal_node_id":"0.0-19.12-1.12"},{"rt":535,"stimulus":"<p>Choose a box,</p>","button_pressed":1,"trial_type":"html-button-response","trial_index":50,"time_elapsed":431292,"internal_node_id":"0.0-19.13-0.13"},{"reward":100,"trial_type":"html-keyboard-response","trial_index":51,"time_elapsed":431293,"internal_node_id":"0.0-19.13-1.13"},{"penalty":1250,"trial_type":"html-keyboard-response","trial_index":51,"time_elapsed":431293,"internal_node_id":"0.0-19.13-1.13"},{"fined":false,"trial_type":"html-keyboard-response","trial_index":51,"time_elapsed":431293,"internal_node_id":"0.0-19.13-1.13"},{"rt":null,"stimulus":"<div style=\"background-color:#6dce98\"><h1 style=\"background-color:MediumSeaGreen\" >You earned 100 coins! Well done!</h1><div style=\"background-color:#6dce98\"><h1 style=\"background-color:MediumSeaGreen\" >Only 1150 left to go!</h1><img id=\"box\" src=\"img/prizes/coins2.png\"></img><img id=\"box\" src=\"img/empty/greenopenbox.png\"></img></div>","key_press":null,"trial_type":"html-keyboard-response","trial_index":51,"time_elapsed":434307,"internal_node_id":"0.0-19.13-1.13"},{"rt":444,"stimulus":"<p>Choose a box,</p>","button_pressed":1,"trial_type":"html-button-response","trial_index":52,"time_elapsed":434757,"internal_node_id":"0.0-19.14-0.14"},{"reward":100,"trial_type":"html-keyboard-response","trial_index":53,"time_elapsed":434757,"internal_node_id":"0.0-19.14-1.14"},{"penalty":1250,"trial_type":"html-keyboard-response","trial_index":53,"time_elapsed":434757,"internal_node_id":"0.0-19.14-1.14"},{"fined":true,"trial_type":"html-keyboard-response","trial_index":53,"time_elapsed":434757,"internal_node_id":"0.0-19.14-1.14"},{"rt":null,"stimulus":"<div style=\"background-color:#ff7157\"><h1 style=\"background-color:MediumSeaGreen\">You earned 100 coins</h1><h1 h1 style=\"background-color:Tomato\">but you have recieved a fine of 1250 coins</h1><h1 style=\"background-color:Tomato\">Remember, you need to keep going until you have 3000 coins!</h1><img id=\"box\" src=\"img/prizes/1250.png\"></img><img id=\"box\" src=\"img/sad/greenopenboxsadthumb.png\"></img></div>","key_press":null,"trial_type":"html-keyboard-response","trial_index":53,"time_elapsed":437767,"internal_node_id":"0.0-19.14-1.14"},{"rt":664,"stimulus":"<p>Choose a box,</p>","button_pressed":0,"trial_type":"html-button-response","trial_index":54,"time_elapsed":438438,"internal_node_id":"0.0-19.15-0.15"},{"reward":100,"trial_type":"html-keyboard-response","trial_index":55,"time_elapsed":438438,"internal_node_id":"0.0-19.15-1.15"},{"penalty":250,"trial_type":"html-keyboard-response","trial_index":55,"time_elapsed":438438,"internal_node_id":"0.0-19.15-1.15"},{"fined":true,"trial_type":"html-keyboard-response","trial_index":55,"time_elapsed":438438,"internal_node_id":"0.0-19.15-1.15"},{"rt":null,"stimulus":"<div style=\"background-color:#ff7157\"><h1 style=\"background-color:MediumSeaGreen\">You earned 100 coins</h1><h1 h1 style=\"background-color:Tomato\">but you have recieved a fine of 250 coins</h1><h1 style=\"background-color:Tomato\">Remember, you need to keep going until you have 3000 coins!</h1><img id=\"box\" src=\"img/prizes/250.png\"></img><img id=\"box\" src=\"img/sad/blueopenboxsadthumb.png\"></img></div>","key_press":null,"trial_type":"html-keyboard-response","trial_index":55,"time_elapsed":441459,"internal_node_id":"0.0-19.15-1.15"},{"rt":508,"stimulus":"<p>Choose a box,</p>","button_pressed":3,"trial_type":"html-button-response","trial_index":56,"time_elapsed":441973,"internal_node_id":"0.0-19.16-0.16"},{"reward":50,"trial_type":"html-keyboard-response","trial_index":57,"time_elapsed":441974,"internal_node_id":"0.0-19.16-1.16"},{"penalty":250,"trial_type":"html-keyboard-response","trial_index":57,"time_elapsed":441974,"internal_node_id":"0.0-19.16-1.16"},{"fined":false,"trial_type":"html-keyboard-response","trial_index":57,"time_elapsed":441974,"internal_node_id":"0.0-19.16-1.16"},{"rt":null,"stimulus":"<div style=\"background-color:#6dce98\"><h1 style=\"background-color:MediumSeaGreen\" >You earned 50 coins! Well done!</h1><div style=\"background-color:#6dce98\"><h1 style=\"background-color:MediumSeaGreen\" >Only 2400 left to go!</h1><img id=\"box\" src=\"img/prizes/coins.png\"></img><img id=\"box\" src=\"img/empty/redopenbox.png\"></img></div>","key_press":null,"trial_type":"html-keyboard-response","trial_index":57,"time_elapsed":444990,"internal_node_id":"0.0-19.16-1.16"},{"rt":993,"stimulus":"<p>Choose a box,</p>","button_pressed":3,"trial_type":"html-button-response","trial_index":58,"time_elapsed":445989,"internal_node_id":"0.0-19.17-0.17"},{"reward":50,"trial_type":"html-keyboard-response","trial_index":59,"time_elapsed":445990,"internal_node_id":"0.0-19.17-1.17"},{"penalty":250,"trial_type":"html-keyboard-response","trial_index":59,"time_elapsed":445990,"internal_node_id":"0.0-19.17-1.17"},{"fined":false,"trial_type":"html-keyboard-response","trial_index":59,"time_elapsed":445990,"internal_node_id":"0.0-19.17-1.17"},{"rt":null,"stimulus":"<div style=\"background-color:#6dce98\"><h1 style=\"background-color:MediumSeaGreen\" >You earned 50 coins! Well done!</h1><div style=\"background-color:#6dce98\"><h1 style=\"background-color:MediumSeaGreen\" >Only 2350 left to go!</h1><img id=\"box\" src=\"img/prizes/coins.png\"></img><img id=\"box\" src=\"img/empty/redopenbox.png\"></img></div>","key_press":null,"trial_type":"html-keyboard-response","trial_index":59,"time_elapsed":448999,"internal_node_id":"0.0-19.17-1.17"},{"rt":488,"stimulus":"<p>Choose a box,</p>","button_pressed":3,"trial_type":"html-button-response","trial_index":60,"time_elapsed":449493,"internal_node_id":"0.0-19.18-0.18"},{"reward":50,"trial_type":"html-keyboard-response","trial_index":61,"time_elapsed":449494,"internal_node_id":"0.0-19.18-1.18"},{"penalty":250,"trial_type":"html-keyboard-response","trial_index":61,"time_elapsed":449494,"internal_node_id":"0.0-19.18-1.18"},{"fined":false,"trial_type":"html-keyboard-response","trial_index":61,"time_elapsed":449494,"internal_node_id":"0.0-19.18-1.18"},{"rt":null,"stimulus":"<div style=\"background-color:#6dce98\"><h1 style=\"background-color:MediumSeaGreen\" >You earned 50 coins! Well done!</h1><div style=\"background-color:#6dce98\"><h1 style=\"background-color:MediumSeaGreen\" >Only 2300 left to go!</h1><img id=\"box\" src=\"img/prizes/coins.png\"></img><img id=\"box\" src=\"img/empty/redopenbox.png\"></img></div>","key_press":null,"trial_type":"html-keyboard-response","trial_index":61,"time_elapsed":452520,"internal_node_id":"0.0-19.18-1.18"},{"rt":487,"stimulus":"<p>Choose a box,</p>","button_pressed":3,"trial_type":"html-button-response","trial_index":62,"time_elapsed":453012,"internal_node_id":"0.0-19.19-0.19"},{"reward":50,"trial_type":"html-keyboard-response","trial_index":63,"time_elapsed":453013,"internal_node_id":"0.0-19.19-1.19"},{"penalty":250,"trial_type":"html-keyboard-response","trial_index":63,"time_elapsed":453013,"internal_node_id":"0.0-19.19-1.19"},{"fined":false,"trial_type":"html-keyboard-response","trial_index":63,"time_elapsed":453013,"internal_node_id":"0.0-19.19-1.19"},{"rt":null,"stimulus":"<div style=\"background-color:#6dce98\"><h1 style=\"background-color:MediumSeaGreen\" >You earned 50 coins! Well done!</h1><div style=\"background-color:#6dce98\"><h1 style=\"background-color:MediumSeaGreen\" >Only 2250 left to go!</h1><img id=\"box\" src=\"img/prizes/coins.png\"></img><img id=\"box\" src=\"img/empty/redopenbox.png\"></img></div>","key_press":null,"trial_type":"html-keyboard-response","trial_index":63,"time_elapsed":456019,"internal_node_id":"0.0-19.19-1.19"},{"rt":429,"stimulus":"<p>Choose a box,</p>","button_pressed":3,"trial_type":"html-button-response","trial_index":64,"time_elapsed":456454,"internal_node_id":"0.0-19.20-0.20"},{"reward":50,"trial_type":"html-keyboard-response","trial_index":65,"time_elapsed":456455,"internal_node_id":"0.0-19.20-1.20"},{"penalty":250,"trial_type":"html-keyboard-response","trial_index":65,"time_elapsed":456455,"internal_node_id":"0.0-19.20-1.20"},{"fined":false,"trial_type":"html-keyboard-response","trial_index":65,"time_elapsed":456455,"internal_node_id":"0.0-19.20-1.20"},{"rt":null,"stimulus":"<div style=\"background-color:#6dce98\"><h1 style=\"background-color:MediumSeaGreen\" >You earned 50 coins! Well done!</h1><div style=\"background-color:#6dce98\"><h1 style=\"background-color:MediumSeaGreen\" >Only 2200 left to go!</h1><img id=\"box\" src=\"img/prizes/coins.png\"></img><img id=\"box\" src=\"img/empty/redopenbox.png\"></img></div>","key_press":null,"trial_type":"html-keyboard-response","trial_index":65,"time_elapsed":459474,"internal_node_id":"0.0-19.20-1.20"},{"rt":470,"stimulus":"<p>Choose a box,</p>","button_pressed":3,"trial_type":"html-button-response","trial_index":66,"time_elapsed":459951,"internal_node_id":"0.0-19.21-0.21"},{"reward":50,"trial_type":"html-keyboard-response","trial_index":67,"time_elapsed":459951,"internal_node_id":"0.0-19.21-1.21"},{"penalty":250,"trial_type":"html-keyboard-response","trial_index":67,"time_elapsed":459951,"internal_node_id":"0.0-19.21-1.21"},{"fined":false,"trial_type":"html-keyboard-response","trial_index":67,"time_elapsed":459951,"internal_node_id":"0.0-19.21-1.21"},{"rt":null,"stimulus":"<div style=\"background-color:#6dce98\"><h1 style=\"background-color:MediumSeaGreen\" >You earned 50 coins! Well done!</h1><div style=\"background-color:#6dce98\"><h1 style=\"background-color:MediumSeaGreen\" >Only 2150 left to go!</h1><img id=\"box\" src=\"img/prizes/coins.png\"></img><img id=\"box\" src=\"img/empty/redopenbox.png\"></img></div>","key_press":null,"trial_type":"html-keyboard-response","trial_index":67,"time_elapsed":462960,"internal_node_id":"0.0-19.21-1.21"},{"rt":448,"stimulus":"<p>Choose a box,</p>","button_pressed":3,"trial_type":"html-button-response","trial_index":68,"time_elapsed":463413,"internal_node_id":"0.0-19.22-0.22"},{"reward":50,"trial_type":"html-keyboard-response","trial_index":69,"time_elapsed":463415,"internal_node_id":"0.0-19.22-1.22"},{"penalty":250,"trial_type":"html-keyboard-response","trial_index":69,"time_elapsed":463415,"internal_node_id":"0.0-19.22-1.22"},{"fined":false,"trial_type":"html-keyboard-response","trial_index":69,"time_elapsed":463415,"internal_node_id":"0.0-19.22-1.22"},{"rt":null,"stimulus":"<div style=\"background-color:#6dce98\"><h1 style=\"background-color:MediumSeaGreen\" >You earned 50 coins! Well done!</h1><div style=\"background-color:#6dce98\"><h1 style=\"background-color:MediumSeaGreen\" >Only 2100 left to go!</h1><img id=\"box\" src=\"img/prizes/coins.png\"></img><img id=\"box\" src=\"img/empty/redopenbox.png\"></img></div>","key_press":null,"trial_type":"html-keyboard-response","trial_index":69,"time_elapsed":466430,"internal_node_id":"0.0-19.22-1.22"},{"rt":449,"stimulus":"<p>Choose a box,</p>","button_pressed":3,"trial_type":"html-button-response","trial_index":70,"time_elapsed":466886,"internal_node_id":"0.0-19.23-0.23"},{"reward":50,"trial_type":"html-keyboard-response","trial_index":71,"time_elapsed":466886,"internal_node_id":"0.0-19.23-1.23"},{"penalty":250,"trial_type":"html-keyboard-response","trial_index":71,"time_elapsed":466886,"internal_node_id":"0.0-19.23-1.23"},{"fined":false,"trial_type":"html-keyboard-response","trial_index":71,"time_elapsed":466886,"internal_node_id":"0.0-19.23-1.23"},{"rt":null,"stimulus":"<div style=\"background-color:#6dce98\"><h1 style=\"background-color:MediumSeaGreen\" >You earned 50 coins! Well done!</h1><div style=\"background-color:#6dce98\"><h1 style=\"background-color:MediumSeaGreen\" >Only 2050 left to go!</h1><img id=\"box\" src=\"img/prizes/coins.png\"></img><img id=\"box\" src=\"img/empty/redopenbox.png\"></img></div>","key_press":null,"trial_type":"html-keyboard-response","trial_index":71,"time_elapsed":469901,"internal_node_id":"0.0-19.23-1.23"},{"rt":483,"stimulus":"<p>Choose a box,</p>","button_pressed":3,"trial_type":"html-button-response","trial_index":72,"time_elapsed":470390,"internal_node_id":"0.0-19.24-0.24"},{"reward":50,"trial_type":"html-keyboard-response","trial_index":73,"time_elapsed":470390,"internal_node_id":"0.0-19.24-1.24"},{"penalty":250,"trial_type":"html-keyboard-response","trial_index":73,"time_elapsed":470390,"internal_node_id":"0.0-19.24-1.24"},{"fined":true,"trial_type":"html-keyboard-response","trial_index":73,"time_elapsed":470390,"internal_node_id":"0.0-19.24-1.24"},{"rt":null,"stimulus":"<div style=\"background-color:#ff7157\"><h1 style=\"background-color:MediumSeaGreen\">You earned 50 coins</h1><h1 h1 style=\"background-color:Tomato\">but you have recieved a fine of 250 coins</h1><h1 style=\"background-color:Tomato\">Remember, you need to keep going until you have 3000 coins!</h1><img id=\"box\" src=\"img/prizes/250.png\"></img><img id=\"box\" src=\"img/sad/redopenboxsadthumb.png\"></img></div>","key_press":null,"trial_type":"html-keyboard-response","trial_index":73,"time_elapsed":473420,"internal_node_id":"0.0-19.24-1.24"},{"rt":1679,"stimulus":"<p>Choose a box,</p>","button_pressed":2,"trial_type":"html-button-response","trial_index":74,"time_elapsed":475103,"internal_node_id":"0.0-19.25-0.25"},{"reward":50,"trial_type":"html-keyboard-response","trial_index":75,"time_elapsed":475104,"internal_node_id":"0.0-19.25-1.25"},{"penalty":50,"trial_type":"html-keyboard-response","trial_index":75,"time_elapsed":475104,"internal_node_id":"0.0-19.25-1.25"},{"fined":false,"trial_type":"html-keyboard-response","trial_index":75,"time_elapsed":475104,"internal_node_id":"0.0-19.25-1.25"},{"rt":null,"stimulus":"<div style=\"background-color:#6dce98\"><h1 style=\"background-color:MediumSeaGreen\" >You earned 50 coins! Well done!</h1><div style=\"background-color:#6dce98\"><h1 style=\"background-color:MediumSeaGreen\" >Only 2200 left to go!</h1><img id=\"box\" src=\"img/prizes/coins.png\"></img><img id=\"box\" src=\"img/empty/purpleopenbox.png\"></img></div>","key_press":null,"trial_type":"html-keyboard-response","trial_index":75,"time_elapsed":478120,"internal_node_id":"0.0-19.25-1.25"},{"rt":576,"stimulus":"<p>Choose a box,</p>","button_pressed":2,"trial_type":"html-button-response","trial_index":76,"time_elapsed":478702,"internal_node_id":"0.0-19.26-0.26"},{"reward":50,"trial_type":"html-keyboard-response","trial_index":77,"time_elapsed":478702,"internal_node_id":"0.0-19.26-1.26"},{"penalty":50,"trial_type":"html-keyboard-response","trial_index":77,"time_elapsed":478702,"internal_node_id":"0.0-19.26-1.26"},{"fined":false,"trial_type":"html-keyboard-response","trial_index":77,"time_elapsed":478702,"internal_node_id":"0.0-19.26-1.26"},{"rt":null,"stimulus":"<div style=\"background-color:#6dce98\"><h1 style=\"background-color:MediumSeaGreen\" >You earned 50 coins! Well done!</h1><div style=\"background-color:#6dce98\"><h1 style=\"background-color:MediumSeaGreen\" >Only 2150 left to go!</h1><img id=\"box\" src=\"img/prizes/coins.png\"></img><img id=\"box\" src=\"img/empty/purpleopenbox.png\"></img></div>","key_press":null,"trial_type":"html-keyboard-response","trial_index":77,"time_elapsed":481720,"internal_node_id":"0.0-19.26-1.26"},{"rt":511,"stimulus":"<p>Choose a box,</p>","button_pressed":2,"trial_type":"html-button-response","trial_index":78,"time_elapsed":482239,"internal_node_id":"0.0-19.27-0.27"},{"reward":50,"trial_type":"html-keyboard-response","trial_index":79,"time_elapsed":482239,"internal_node_id":"0.0-19.27-1.27"},{"penalty":50,"trial_type":"html-keyboard-response","trial_index":79,"time_elapsed":482240,"internal_node_id":"0.0-19.27-1.27"},{"fined":true,"trial_type":"html-keyboard-response","trial_index":79,"time_elapsed":482240,"internal_node_id":"0.0-19.27-1.27"},{"rt":null,"stimulus":"<div style=\"background-color:#ff7157\"><h1 style=\"background-color:MediumSeaGreen\">You earned 50 coins</h1><h1 h1 style=\"background-color:Tomato\">but you have recieved a fine of 50 coins</h1><h1 style=\"background-color:Tomato\">Remember, you need to keep going until you have 3000 coins!</h1><img id=\"box\" src=\"img/prizes/50.png\"></img><img id=\"box\" src=\"img/sad/purpleopenboxsadthumb.png\"></img></div>","key_press":null,"trial_type":"html-keyboard-response","trial_index":79,"time_elapsed":485259,"internal_node_id":"0.0-19.27-1.27"},{"rt":487,"stimulus":"<p>Choose a box,</p>","button_pressed":0,"trial_type":"html-button-response","trial_index":80,"time_elapsed":485751,"internal_node_id":"0.0-19.28-0.28"},{"reward":100,"trial_type":"html-keyboard-response","trial_index":81,"time_elapsed":485752,"internal_node_id":"0.0-19.28-1.28"},{"penalty":250,"trial_type":"html-keyboard-response","trial_index":81,"time_elapsed":485752,"internal_node_id":"0.0-19.28-1.28"},{"fined":false,"trial_type":"html-keyboard-response","trial_index":81,"time_elapsed":485752,"internal_node_id":"0.0-19.28-1.28"},{"rt":null,"stimulus":"<div style=\"background-color:#6dce98\"><h1 style=\"background-color:MediumSeaGreen\" >You earned 100 coins! Well done!</h1><div style=\"background-color:#6dce98\"><h1 style=\"background-color:MediumSeaGreen\" >Only 2050 left to go!</h1><img id=\"box\" src=\"img/prizes/coins2.png\"></img><img id=\"box\" src=\"img/empty/blueopenbox.png\"></img></div>","key_press":null,"trial_type":"html-keyboard-response","trial_index":81,"time_elapsed":488759,"internal_node_id":"0.0-19.28-1.28"},{"rt":732,"stimulus":"<p>Choose a box,</p>","button_pressed":0,"trial_type":"html-button-response","trial_index":82,"time_elapsed":489496,"internal_node_id":"0.0-19.29-0.29"},{"reward":100,"trial_type":"html-keyboard-response","trial_index":83,"time_elapsed":489497,"internal_node_id":"0.0-19.29-1.29"},{"penalty":250,"trial_type":"html-keyboard-response","trial_index":83,"time_elapsed":489497,"internal_node_id":"0.0-19.29-1.29"},{"fined":false,"trial_type":"html-keyboard-response","trial_index":83,"time_elapsed":489497,"internal_node_id":"0.0-19.29-1.29"},{"rt":null,"stimulus":"<div style=\"background-color:#6dce98\"><h1 style=\"background-color:MediumSeaGreen\" >You earned 100 coins! Well done!</h1><div style=\"background-color:#6dce98\"><h1 style=\"background-color:MediumSeaGreen\" >Only 1950 left to go!</h1><img id=\"box\" src=\"img/prizes/coins2.png\"></img><img id=\"box\" src=\"img/empty/blueopenbox.png\"></img></div>","key_press":null,"trial_type":"html-keyboard-response","trial_index":83,"time_elapsed":492522,"internal_node_id":"0.0-19.29-1.29"},{"rt":487,"stimulus":"<p>Choose a box,</p>","button_pressed":0,"trial_type":"html-button-response","trial_index":84,"time_elapsed":493015,"internal_node_id":"0.0-19.30-0.30"},{"reward":100,"trial_type":"html-keyboard-response","trial_index":85,"time_elapsed":493017,"internal_node_id":"0.0-19.30-1.30"},{"penalty":250,"trial_type":"html-keyboard-response","trial_index":85,"time_elapsed":493017,"internal_node_id":"0.0-19.30-1.30"},{"fined":true,"trial_type":"html-keyboard-response","trial_index":85,"time_elapsed":493017,"internal_node_id":"0.0-19.30-1.30"},{"rt":null,"stimulus":"<div style=\"background-color:#ff7157\"><h1 style=\"background-color:MediumSeaGreen\">You earned 100 coins</h1><h1 h1 style=\"background-color:Tomato\">but you have recieved a fine of 250 coins</h1><h1 style=\"background-color:Tomato\">Remember, you need to keep going until you have 3000 coins!</h1><img id=\"box\" src=\"img/prizes/250.png\"></img><img id=\"box\" src=\"img/sad/blueopenboxsadthumb.png\"></img></div>","key_press":null,"trial_type":"html-keyboard-response","trial_index":85,"time_elapsed":496039,"internal_node_id":"0.0-19.30-1.30"},{"rt":484,"stimulus":"<p>Choose a box,</p>","button_pressed":1,"trial_type":"html-button-response","trial_index":86,"time_elapsed":496528,"internal_node_id":"0.0-19.31-0.31"},{"reward":100,"trial_type":"html-keyboard-response","trial_index":87,"time_elapsed":496528,"internal_node_id":"0.0-19.31-1.31"},{"penalty":1250,"trial_type":"html-keyboard-response","trial_index":87,"time_elapsed":496528,"internal_node_id":"0.0-19.31-1.31"},{"fined":false,"trial_type":"html-keyboard-response","trial_index":87,"time_elapsed":496528,"internal_node_id":"0.0-19.31-1.31"},{"rt":null,"stimulus":"<div style=\"background-color:#6dce98\"><h1 style=\"background-color:MediumSeaGreen\" >You earned 100 coins! Well done!</h1><div style=\"background-color:#6dce98\"><h1 style=\"background-color:MediumSeaGreen\" >Only 2000 left to go!</h1><img id=\"box\" src=\"img/prizes/coins2.png\"></img><img id=\"box\" src=\"img/empty/greenopenbox.png\"></img></div>","key_press":null,"trial_type":"html-keyboard-response","trial_index":87,"time_elapsed":499551,"internal_node_id":"0.0-19.31-1.31"},{"rt":498,"stimulus":"<p>Choose a box,</p>","button_pressed":1,"trial_type":"html-button-response","trial_index":88,"time_elapsed":500056,"internal_node_id":"0.0-19.32-0.32"},{"reward":100,"trial_type":"html-keyboard-response","trial_index":89,"time_elapsed":500056,"internal_node_id":"0.0-19.32-1.32"},{"penalty":1250,"trial_type":"html-keyboard-response","trial_index":89,"time_elapsed":500056,"internal_node_id":"0.0-19.32-1.32"},{"fined":false,"trial_type":"html-keyboard-response","trial_index":89,"time_elapsed":500056,"internal_node_id":"0.0-19.32-1.32"},{"rt":null,"stimulus":"<div style=\"background-color:#6dce98\"><h1 style=\"background-color:MediumSeaGreen\" >You earned 100 coins! Well done!</h1><div style=\"background-color:#6dce98\"><h1 style=\"background-color:MediumSeaGreen\" >Only 1900 left to go!</h1><img id=\"box\" src=\"img/prizes/coins2.png\"></img><img id=\"box\" src=\"img/empty/greenopenbox.png\"></img></div>","key_press":null,"trial_type":"html-keyboard-response","trial_index":89,"time_elapsed":503071,"internal_node_id":"0.0-19.32-1.32"},{"rt":466,"stimulus":"<p>Choose a box,</p>","button_pressed":1,"trial_type":"html-button-response","trial_index":90,"time_elapsed":503544,"internal_node_id":"0.0-19.33-0.33"},{"reward":100,"trial_type":"html-keyboard-response","trial_index":91,"time_elapsed":503544,"internal_node_id":"0.0-19.33-1.33"},{"penalty":1250,"trial_type":"html-keyboard-response","trial_index":91,"time_elapsed":503544,"internal_node_id":"0.0-19.33-1.33"},{"fined":false,"trial_type":"html-keyboard-response","trial_index":91,"time_elapsed":503544,"internal_node_id":"0.0-19.33-1.33"},{"rt":null,"stimulus":"<div style=\"background-color:#6dce98\"><h1 style=\"background-color:MediumSeaGreen\" >You earned 100 coins! Well done!</h1><div style=\"background-color:#6dce98\"><h1 style=\"background-color:MediumSeaGreen\" >Only 1800 left to go!</h1><img id=\"box\" src=\"img/prizes/coins2.png\"></img><img id=\"box\" src=\"img/empty/greenopenbox.png\"></img></div>","key_press":null,"trial_type":"html-keyboard-response","trial_index":91,"time_elapsed":506560,"internal_node_id":"0.0-19.33-1.33"},{"rt":452,"stimulus":"<p>Choose a box,</p>","button_pressed":1,"trial_type":"html-button-response","trial_index":92,"time_elapsed":507016,"internal_node_id":"0.0-19.34-0.34"},{"reward":100,"trial_type":"html-keyboard-response","trial_index":93,"time_elapsed":507016,"internal_node_id":"0.0-19.34-1.34"},{"penalty":1250,"trial_type":"html-keyboard-response","trial_index":93,"time_elapsed":507017,"internal_node_id":"0.0-19.34-1.34"},{"fined":false,"trial_type":"html-keyboard-response","trial_index":93,"time_elapsed":507017,"internal_node_id":"0.0-19.34-1.34"},{"rt":null,"stimulus":"<div style=\"background-color:#6dce98\"><h1 style=\"background-color:MediumSeaGreen\" >You earned 100 coins! Well done!</h1><div style=\"background-color:#6dce98\"><h1 style=\"background-color:MediumSeaGreen\" >Only 1700 left to go!</h1><img id=\"box\" src=\"img/prizes/coins2.png\"></img><img id=\"box\" src=\"img/empty/greenopenbox.png\"></img></div>","key_press":null,"trial_type":"html-keyboard-response","trial_index":93,"time_elapsed":510041,"internal_node_id":"0.0-19.34-1.34"},{"rt":839,"stimulus":"<p>Choose a box,</p>","button_pressed":3,"trial_type":"html-button-response","trial_index":94,"time_elapsed":510887,"internal_node_id":"0.0-19.35-0.35"},{"reward":50,"trial_type":"html-keyboard-response","trial_index":95,"time_elapsed":510888,"internal_node_id":"0.0-19.35-1.35"},{"penalty":250,"trial_type":"html-keyboard-response","trial_index":95,"time_elapsed":510888,"internal_node_id":"0.0-19.35-1.35"},{"fined":false,"trial_type":"html-keyboard-response","trial_index":95,"time_elapsed":510888,"internal_node_id":"0.0-19.35-1.35"},{"rt":null,"stimulus":"<div style=\"background-color:#6dce98\"><h1 style=\"background-color:MediumSeaGreen\" >You earned 50 coins! Well done!</h1><div style=\"background-color:#6dce98\"><h1 style=\"background-color:MediumSeaGreen\" >Only 1650 left to go!</h1><img id=\"box\" src=\"img/prizes/coins.png\"></img><img id=\"box\" src=\"img/empty/redopenbox.png\"></img></div>","key_press":null,"trial_type":"html-keyboard-response","trial_index":95,"time_elapsed":513901,"internal_node_id":"0.0-19.35-1.35"},{"rt":484,"stimulus":"<p>Choose a box,</p>","button_pressed":3,"trial_type":"html-button-response","trial_index":96,"time_elapsed":514393,"internal_node_id":"0.0-19.36-0.36"},{"reward":50,"trial_type":"html-keyboard-response","trial_index":97,"time_elapsed":514395,"internal_node_id":"0.0-19.36-1.36"},{"penalty":250,"trial_type":"html-keyboard-response","trial_index":97,"time_elapsed":514395,"internal_node_id":"0.0-19.36-1.36"},{"fined":false,"trial_type":"html-keyboard-response","trial_index":97,"time_elapsed":514395,"internal_node_id":"0.0-19.36-1.36"},{"rt":null,"stimulus":"<div style=\"background-color:#6dce98\"><h1 style=\"background-color:MediumSeaGreen\" >You earned 50 coins! Well done!</h1><div style=\"background-color:#6dce98\"><h1 style=\"background-color:MediumSeaGreen\" >Only 1600 left to go!</h1><img id=\"box\" src=\"img/prizes/coins.png\"></img><img id=\"box\" src=\"img/empty/redopenbox.png\"></img></div>","key_press":null,"trial_type":"html-keyboard-response","trial_index":97,"time_elapsed":517420,"internal_node_id":"0.0-19.36-1.36"},{"rt":445,"stimulus":"<p>Choose a box,</p>","button_pressed":3,"trial_type":"html-button-response","trial_index":98,"time_elapsed":517872,"internal_node_id":"0.0-19.37-0.37"},{"reward":50,"trial_type":"html-keyboard-response","trial_index":99,"time_elapsed":517873,"internal_node_id":"0.0-19.37-1.37"},{"penalty":250,"trial_type":"html-keyboard-response","trial_index":99,"time_elapsed":517873,"internal_node_id":"0.0-19.37-1.37"},{"fined":true,"trial_type":"html-keyboard-response","trial_index":99,"time_elapsed":517874,"internal_node_id":"0.0-19.37-1.37"},{"rt":null,"stimulus":"<div style=\"background-color:#ff7157\"><h1 style=\"background-color:MediumSeaGreen\">You earned 50 coins</h1><h1 h1 style=\"background-color:Tomato\">but you have recieved a fine of 250 coins</h1><h1 style=\"background-color:Tomato\">Remember, you need to keep going until you have 3000 coins!</h1><img id=\"box\" src=\"img/prizes/250.png\"></img><img id=\"box\" src=\"img/sad/redopenboxsadthumb.png\"></img></div>","key_press":null,"trial_type":"html-keyboard-response","trial_index":99,"time_elapsed":520892,"internal_node_id":"0.0-19.37-1.37"},{"rt":585,"stimulus":"<p>Choose a box,</p>","button_pressed":2,"trial_type":"html-button-response","trial_index":100,"time_elapsed":521485,"internal_node_id":"0.0-19.38-0.38"},{"reward":50,"trial_type":"html-keyboard-response","trial_index":101,"time_elapsed":521486,"internal_node_id":"0.0-19.38-1.38"},{"penalty":50,"trial_type":"html-keyboard-response","trial_index":101,"time_elapsed":521486,"internal_node_id":"0.0-19.38-1.38"},{"fined":true,"trial_type":"html-keyboard-response","trial_index":101,"time_elapsed":521486,"internal_node_id":"0.0-19.38-1.38"},{"rt":null,"stimulus":"<div style=\"background-color:#ff7157\"><h1 style=\"background-color:MediumSeaGreen\">You earned 50 coins</h1><h1 h1 style=\"background-color:Tomato\">but you have recieved a fine of 50 coins</h1><h1 style=\"background-color:Tomato\">Remember, you need to keep going until you have 3000 coins!</h1><img id=\"box\" src=\"img/prizes/50.png\"></img><img id=\"box\" src=\"img/sad/purpleopenboxsadthumb.png\"></img></div>","key_press":null,"trial_type":"html-keyboard-response","trial_index":101,"time_elapsed":524511,"internal_node_id":"0.0-19.38-1.38"},{"rt":507,"stimulus":"<p>Choose a box,</p>","button_pressed":1,"trial_type":"html-button-response","trial_index":102,"time_elapsed":525024,"internal_node_id":"0.0-19.39-0.39"},{"reward":100,"trial_type":"html-keyboard-response","trial_index":103,"time_elapsed":525024,"internal_node_id":"0.0-19.39-1.39"},{"penalty":1250,"trial_type":"html-keyboard-response","trial_index":103,"time_elapsed":525024,"internal_node_id":"0.0-19.39-1.39"},{"fined":false,"trial_type":"html-keyboard-response","trial_index":103,"time_elapsed":525024,"internal_node_id":"0.0-19.39-1.39"},{"rt":null,"stimulus":"<div style=\"background-color:#6dce98\"><h1 style=\"background-color:MediumSeaGreen\" >You earned 100 coins! Well done!</h1><div style=\"background-color:#6dce98\"><h1 style=\"background-color:MediumSeaGreen\" >Only 1700 left to go!</h1><img id=\"box\" src=\"img/prizes/coins2.png\"></img><img id=\"box\" src=\"img/empty/greenopenbox.png\"></img></div>","key_press":null,"trial_type":"html-keyboard-response","trial_index":103,"time_elapsed":528042,"internal_node_id":"0.0-19.39-1.39"},{"rt":519,"stimulus":"<p>Choose a box,</p>","button_pressed":1,"trial_type":"html-button-response","trial_index":104,"time_elapsed":528568,"internal_node_id":"0.0-19.40-0.40"},{"reward":100,"trial_type":"html-keyboard-response","trial_index":105,"time_elapsed":528568,"internal_node_id":"0.0-19.40-1.40"},{"penalty":1250,"trial_type":"html-keyboard-response","trial_index":105,"time_elapsed":528568,"internal_node_id":"0.0-19.40-1.40"},{"fined":false,"trial_type":"html-keyboard-response","trial_index":105,"time_elapsed":528568,"internal_node_id":"0.0-19.40-1.40"},{"rt":null,"stimulus":"<div style=\"background-color:#6dce98\"><h1 style=\"background-color:MediumSeaGreen\" >You earned 100 coins! Well done!</h1><div style=\"background-color:#6dce98\"><h1 style=\"background-color:MediumSeaGreen\" >Only 1600 left to go!</h1><img id=\"box\" src=\"img/prizes/coins2.png\"></img><img id=\"box\" src=\"img/empty/greenopenbox.png\"></img></div>","key_press":null,"trial_type":"html-keyboard-response","trial_index":105,"time_elapsed":531592,"internal_node_id":"0.0-19.40-1.40"},{"rt":394,"stimulus":"<p>Choose a box,</p>","button_pressed":1,"trial_type":"html-button-response","trial_index":106,"time_elapsed":531992,"internal_node_id":"0.0-19.41-0.41"},{"reward":100,"trial_type":"html-keyboard-response","trial_index":107,"time_elapsed":531992,"internal_node_id":"0.0-19.41-1.41"},{"penalty":1250,"trial_type":"html-keyboard-response","trial_index":107,"time_elapsed":531992,"internal_node_id":"0.0-19.41-1.41"},{"fined":false,"trial_type":"html-keyboard-response","trial_index":107,"time_elapsed":531993,"internal_node_id":"0.0-19.41-1.41"},{"rt":null,"stimulus":"<div style=\"background-color:#6dce98\"><h1 style=\"background-color:MediumSeaGreen\" >You earned 100 coins! Well done!</h1><div style=\"background-color:#6dce98\"><h1 style=\"background-color:MediumSeaGreen\" >Only 1500 left to go!</h1><img id=\"box\" src=\"img/prizes/coins2.png\"></img><img id=\"box\" src=\"img/empty/greenopenbox.png\"></img></div>","key_press":null,"trial_type":"html-keyboard-response","trial_index":107,"time_elapsed":535012,"internal_node_id":"0.0-19.41-1.41"},{"rt":477,"stimulus":"<p>Choose a box,</p>","button_pressed":1,"trial_type":"html-button-response","trial_index":108,"time_elapsed":535495,"internal_node_id":"0.0-19.42-0.42"},{"reward":100,"trial_type":"html-keyboard-response","trial_index":109,"time_elapsed":535496,"internal_node_id":"0.0-19.42-1.42"},{"penalty":1250,"trial_type":"html-keyboard-response","trial_index":109,"time_elapsed":535496,"internal_node_id":"0.0-19.42-1.42"},{"fined":true,"trial_type":"html-keyboard-response","trial_index":109,"time_elapsed":535496,"internal_node_id":"0.0-19.42-1.42"},{"rt":null,"stimulus":"<div style=\"background-color:#ff7157\"><h1 style=\"background-color:MediumSeaGreen\">You earned 100 coins</h1><h1 h1 style=\"background-color:Tomato\">but you have recieved a fine of 1250 coins</h1><h1 style=\"background-color:Tomato\">Remember, you need to keep going until you have 3000 coins!</h1><img id=\"box\" src=\"img/prizes/1250.png\"></img><img id=\"box\" src=\"img/sad/greenopenboxsadthumb.png\"></img></div>","key_press":null,"trial_type":"html-keyboard-response","trial_index":109,"time_elapsed":538513,"internal_node_id":"0.0-19.42-1.42"},{"rt":521,"stimulus":"<p>Choose a box,</p>","button_pressed":3,"trial_type":"html-button-response","trial_index":110,"time_elapsed":539040,"internal_node_id":"0.0-19.43-0.43"},{"reward":50,"trial_type":"html-keyboard-response","trial_index":111,"time_elapsed":539041,"internal_node_id":"0.0-19.43-1.43"},{"penalty":250,"trial_type":"html-keyboard-response","trial_index":111,"time_elapsed":539041,"internal_node_id":"0.0-19.43-1.43"},{"fined":false,"trial_type":"html-keyboard-response","trial_index":111,"time_elapsed":539041,"internal_node_id":"0.0-19.43-1.43"},{"rt":null,"stimulus":"<div style=\"background-color:#6dce98\"><h1 style=\"background-color:MediumSeaGreen\" >You earned 50 coins! Well done!</h1><div style=\"background-color:#6dce98\"><h1 style=\"background-color:MediumSeaGreen\" >Only 2600 left to go!</h1><img id=\"box\" src=\"img/prizes/coins.png\"></img><img id=\"box\" src=\"img/empty/redopenbox.png\"></img></div>","key_press":null,"trial_type":"html-keyboard-response","trial_index":111,"time_elapsed":542051,"internal_node_id":"0.0-19.43-1.43"},{"rt":918,"stimulus":"<p>Choose a box,</p>","button_pressed":3,"trial_type":"html-button-response","trial_index":112,"time_elapsed":542976,"internal_node_id":"0.0-19.44-0.44"},{"reward":50,"trial_type":"html-keyboard-response","trial_index":113,"time_elapsed":542976,"internal_node_id":"0.0-19.44-1.44"},{"penalty":250,"trial_type":"html-keyboard-response","trial_index":113,"time_elapsed":542976,"internal_node_id":"0.0-19.44-1.44"},{"fined":false,"trial_type":"html-keyboard-response","trial_index":113,"time_elapsed":542976,"internal_node_id":"0.0-19.44-1.44"},{"rt":null,"stimulus":"<div style=\"background-color:#6dce98\"><h1 style=\"background-color:MediumSeaGreen\" >You earned 50 coins! Well done!</h1><div style=\"background-color:#6dce98\"><h1 style=\"background-color:MediumSeaGreen\" >Only 2550 left to go!</h1><img id=\"box\" src=\"img/prizes/coins.png\"></img><img id=\"box\" src=\"img/empty/redopenbox.png\"></img></div>","key_press":null,"trial_type":"html-keyboard-response","trial_index":113,"time_elapsed":545983,"internal_node_id":"0.0-19.44-1.44"},{"rt":492,"stimulus":"<p>Choose a box,</p>","button_pressed":3,"trial_type":"html-button-response","trial_index":114,"time_elapsed":546483,"internal_node_id":"0.0-19.45-0.45"},{"reward":50,"trial_type":"html-keyboard-response","trial_index":115,"time_elapsed":546483,"internal_node_id":"0.0-19.45-1.45"},{"penalty":250,"trial_type":"html-keyboard-response","trial_index":115,"time_elapsed":546483,"internal_node_id":"0.0-19.45-1.45"},{"fined":false,"trial_type":"html-keyboard-response","trial_index":115,"time_elapsed":546483,"internal_node_id":"0.0-19.45-1.45"},{"rt":null,"stimulus":"<div style=\"background-color:#6dce98\"><h1 style=\"background-color:MediumSeaGreen\" >You earned 50 coins! Well done!</h1><div style=\"background-color:#6dce98\"><h1 style=\"background-color:MediumSeaGreen\" >Only 2500 left to go!</h1><img id=\"box\" src=\"img/prizes/coins.png\"></img><img id=\"box\" src=\"img/empty/redopenbox.png\"></img></div>","key_press":null,"trial_type":"html-keyboard-response","trial_index":115,"time_elapsed":549503,"internal_node_id":"0.0-19.45-1.45"},{"rt":476,"stimulus":"<p>Choose a box,</p>","button_pressed":3,"trial_type":"html-button-response","trial_index":116,"time_elapsed":549985,"internal_node_id":"0.0-19.46-0.46"},{"reward":50,"trial_type":"html-keyboard-response","trial_index":117,"time_elapsed":549985,"internal_node_id":"0.0-19.46-1.46"},{"penalty":250,"trial_type":"html-keyboard-response","trial_index":117,"time_elapsed":549985,"internal_node_id":"0.0-19.46-1.46"},{"fined":false,"trial_type":"html-keyboard-response","trial_index":117,"time_elapsed":549985,"internal_node_id":"0.0-19.46-1.46"},{"rt":null,"stimulus":"<div style=\"background-color:#6dce98\"><h1 style=\"background-color:MediumSeaGreen\" >You earned 50 coins! Well done!</h1><div style=\"background-color:#6dce98\"><h1 style=\"background-color:MediumSeaGreen\" >Only 2450 left to go!</h1><img id=\"box\" src=\"img/prizes/coins.png\"></img><img id=\"box\" src=\"img/empty/redopenbox.png\"></img></div>","key_press":null,"trial_type":"html-keyboard-response","trial_index":117,"time_elapsed":553003,"internal_node_id":"0.0-19.46-1.46"},{"rt":463,"stimulus":"<p>Choose a box,</p>","button_pressed":3,"trial_type":"html-button-response","trial_index":118,"time_elapsed":553472,"internal_node_id":"0.0-19.47-0.47"},{"reward":50,"trial_type":"html-keyboard-response","trial_index":119,"time_elapsed":553473,"internal_node_id":"0.0-19.47-1.47"},{"penalty":250,"trial_type":"html-keyboard-response","trial_index":119,"time_elapsed":553473,"internal_node_id":"0.0-19.47-1.47"},{"fined":false,"trial_type":"html-keyboard-response","trial_index":119,"time_elapsed":553473,"internal_node_id":"0.0-19.47-1.47"},{"rt":null,"stimulus":"<div style=\"background-color:#6dce98\"><h1 style=\"background-color:MediumSeaGreen\" >You earned 50 coins! Well done!</h1><div style=\"background-color:#6dce98\"><h1 style=\"background-color:MediumSeaGreen\" >Only 2400 left to go!</h1><img id=\"box\" src=\"img/prizes/coins.png\"></img><img id=\"box\" src=\"img/empty/redopenbox.png\"></img></div>","key_press":null,"trial_type":"html-keyboard-response","trial_index":119,"time_elapsed":556494,"internal_node_id":"0.0-19.47-1.47"},{"rt":405,"stimulus":"<p>Choose a box,</p>","button_pressed":3,"trial_type":"html-button-response","trial_index":120,"time_elapsed":556905,"internal_node_id":"0.0-19.48-0.48"},{"reward":50,"trial_type":"html-keyboard-response","trial_index":121,"time_elapsed":556906,"internal_node_id":"0.0-19.48-1.48"},{"penalty":250,"trial_type":"html-keyboard-response","trial_index":121,"time_elapsed":556906,"internal_node_id":"0.0-19.48-1.48"},{"fined":false,"trial_type":"html-keyboard-response","trial_index":121,"time_elapsed":556906,"internal_node_id":"0.0-19.48-1.48"},{"rt":null,"stimulus":"<div style=\"background-color:#6dce98\"><h1 style=\"background-color:MediumSeaGreen\" >You earned 50 coins! Well done!</h1><div style=\"background-color:#6dce98\"><h1 style=\"background-color:MediumSeaGreen\" >Only 2350 left to go!</h1><img id=\"box\" src=\"img/prizes/coins.png\"></img><img id=\"box\" src=\"img/empty/redopenbox.png\"></img></div>","key_press":null,"trial_type":"html-keyboard-response","trial_index":121,"time_elapsed":559913,"internal_node_id":"0.0-19.48-1.48"},{"rt":481,"stimulus":"<p>Choose a box,</p>","button_pressed":3,"trial_type":"html-button-response","trial_index":122,"time_elapsed":560401,"internal_node_id":"0.0-19.49-0.49"},{"reward":50,"trial_type":"html-keyboard-response","trial_index":123,"time_elapsed":560402,"internal_node_id":"0.0-19.49-1.49"},{"penalty":250,"trial_type":"html-keyboard-response","trial_index":123,"time_elapsed":560402,"internal_node_id":"0.0-19.49-1.49"},{"fined":false,"trial_type":"html-keyboard-response","trial_index":123,"time_elapsed":560402,"internal_node_id":"0.0-19.49-1.49"},{"rt":null,"stimulus":"<div style=\"background-color:#6dce98\"><h1 style=\"background-color:MediumSeaGreen\" >You earned 50 coins! Well done!</h1><div style=\"background-color:#6dce98\"><h1 style=\"background-color:MediumSeaGreen\" >Only 2300 left to go!</h1><img id=\"box\" src=\"img/prizes/coins.png\"></img><img id=\"box\" src=\"img/empty/redopenbox.png\"></img></div>","key_press":null,"trial_type":"html-keyboard-response","trial_index":123,"time_elapsed":563408,"internal_node_id":"0.0-19.49-1.49"},{"rt":690,"stimulus":"<p>Choose a box,</p>","button_pressed":3,"trial_type":"html-button-response","trial_index":124,"time_elapsed":564105,"internal_node_id":"0.0-19.50-0.50"},{"reward":50,"trial_type":"html-keyboard-response","trial_index":125,"time_elapsed":564106,"internal_node_id":"0.0-19.50-1.50"},{"penalty":250,"trial_type":"html-keyboard-response","trial_index":125,"time_elapsed":564106,"internal_node_id":"0.0-19.50-1.50"},{"fined":false,"trial_type":"html-keyboard-response","trial_index":125,"time_elapsed":564106,"internal_node_id":"0.0-19.50-1.50"},{"rt":null,"stimulus":"<div style=\"background-color:#6dce98\"><h1 style=\"background-color:MediumSeaGreen\" >You earned 50 coins! Well done!</h1><div style=\"background-color:#6dce98\"><h1 style=\"background-color:MediumSeaGreen\" >Only 2250 left to go!</h1><img id=\"box\" src=\"img/prizes/coins.png\"></img><img id=\"box\" src=\"img/empty/redopenbox.png\"></img></div>","key_press":null,"trial_type":"html-keyboard-response","trial_index":125,"time_elapsed":567122,"internal_node_id":"0.0-19.50-1.50"},{"rt":528,"stimulus":"<p>Choose a box,</p>","button_pressed":3,"trial_type":"html-button-response","trial_index":126,"time_elapsed":567657,"internal_node_id":"0.0-19.51-0.51"},{"reward":50,"trial_type":"html-keyboard-response","trial_index":127,"time_elapsed":567657,"internal_node_id":"0.0-19.51-1.51"},{"penalty":250,"trial_type":"html-keyboard-response","trial_index":127,"time_elapsed":567657,"internal_node_id":"0.0-19.51-1.51"},{"fined":false,"trial_type":"html-keyboard-response","trial_index":127,"time_elapsed":567658,"internal_node_id":"0.0-19.51-1.51"},{"rt":null,"stimulus":"<div style=\"background-color:#6dce98\"><h1 style=\"background-color:MediumSeaGreen\" >You earned 50 coins! Well done!</h1><div style=\"background-color:#6dce98\"><h1 style=\"background-color:MediumSeaGreen\" >Only 2200 left to go!</h1><img id=\"box\" src=\"img/prizes/coins.png\"></img><img id=\"box\" src=\"img/empty/redopenbox.png\"></img></div>","key_press":null,"trial_type":"html-keyboard-response","trial_index":127,"time_elapsed":570675,"internal_node_id":"0.0-19.51-1.51"},{"rt":496,"stimulus":"<p>Choose a box,</p>","button_pressed":3,"trial_type":"html-button-response","trial_index":128,"time_elapsed":571177,"internal_node_id":"0.0-19.52-0.52"},{"reward":50,"trial_type":"html-keyboard-response","trial_index":129,"time_elapsed":571178,"internal_node_id":"0.0-19.52-1.52"},{"penalty":250,"trial_type":"html-keyboard-response","trial_index":129,"time_elapsed":571178,"internal_node_id":"0.0-19.52-1.52"},{"fined":true,"trial_type":"html-keyboard-response","trial_index":129,"time_elapsed":571178,"internal_node_id":"0.0-19.52-1.52"},{"rt":null,"stimulus":"<div style=\"background-color:#ff7157\"><h1 style=\"background-color:MediumSeaGreen\">You earned 50 coins</h1><h1 h1 style=\"background-color:Tomato\">but you have recieved a fine of 250 coins</h1><h1 style=\"background-color:Tomato\">Remember, you need to keep going until you have 3000 coins!</h1><img id=\"box\" src=\"img/prizes/250.png\"></img><img id=\"box\" src=\"img/sad/redopenboxsadthumb.png\"></img></div>","key_press":null,"trial_type":"html-keyboard-response","trial_index":129,"time_elapsed":574193,"internal_node_id":"0.0-19.52-1.52"},{"rt":1202,"stimulus":"<p>Choose a box,</p>","button_pressed":2,"trial_type":"html-button-response","trial_index":130,"time_elapsed":575403,"internal_node_id":"0.0-19.53-0.53"},{"reward":50,"trial_type":"html-keyboard-response","trial_index":131,"time_elapsed":575403,"internal_node_id":"0.0-19.53-1.53"},{"penalty":50,"trial_type":"html-keyboard-response","trial_index":131,"time_elapsed":575403,"internal_node_id":"0.0-19.53-1.53"},{"fined":true,"trial_type":"html-keyboard-response","trial_index":131,"time_elapsed":575404,"internal_node_id":"0.0-19.53-1.53"},{"rt":null,"stimulus":"<div style=\"background-color:#ff7157\"><h1 style=\"background-color:MediumSeaGreen\">You earned 50 coins</h1><h1 h1 style=\"background-color:Tomato\">but you have recieved a fine of 50 coins</h1><h1 style=\"background-color:Tomato\">Remember, you need to keep going until you have 3000 coins!</h1><img id=\"box\" src=\"img/prizes/50.png\"></img><img id=\"box\" src=\"img/sad/purpleopenboxsadthumb.png\"></img></div>","key_press":null,"trial_type":"html-keyboard-response","trial_index":131,"time_elapsed":578421,"internal_node_id":"0.0-19.53-1.53"},{"rt":774,"stimulus":"<p>Choose a box,</p>","button_pressed":0,"trial_type":"html-button-response","trial_index":132,"time_elapsed":579202,"internal_node_id":"0.0-19.54-0.54"},{"reward":100,"trial_type":"html-keyboard-response","trial_index":133,"time_elapsed":579203,"internal_node_id":"0.0-19.54-1.54"},{"penalty":250,"trial_type":"html-keyboard-response","trial_index":133,"time_elapsed":579203,"internal_node_id":"0.0-19.54-1.54"},{"fined":false,"trial_type":"html-keyboard-response","trial_index":133,"time_elapsed":579203,"internal_node_id":"0.0-19.54-1.54"},{"rt":null,"stimulus":"<div style=\"background-color:#6dce98\"><h1 style=\"background-color:MediumSeaGreen\" >You earned 100 coins! Well done!</h1><div style=\"background-color:#6dce98\"><h1 style=\"background-color:MediumSeaGreen\" >Only 2300 left to go!</h1><img id=\"box\" src=\"img/prizes/coins2.png\"></img><img id=\"box\" src=\"img/empty/blueopenbox.png\"></img></div>","key_press":null,"trial_type":"html-keyboard-response","trial_index":133,"time_elapsed":582213,"internal_node_id":"0.0-19.54-1.54"},{"rt":607,"stimulus":"<p>Choose a box,</p>","button_pressed":0,"trial_type":"html-button-response","trial_index":134,"time_elapsed":582826,"internal_node_id":"0.0-19.55-0.55"},{"reward":100,"trial_type":"html-keyboard-response","trial_index":135,"time_elapsed":582827,"internal_node_id":"0.0-19.55-1.55"},{"penalty":250,"trial_type":"html-keyboard-response","trial_index":135,"time_elapsed":582827,"internal_node_id":"0.0-19.55-1.55"},{"fined":false,"trial_type":"html-keyboard-response","trial_index":135,"time_elapsed":582827,"internal_node_id":"0.0-19.55-1.55"},{"rt":null,"stimulus":"<div style=\"background-color:#6dce98\"><h1 style=\"background-color:MediumSeaGreen\" >You earned 100 coins! Well done!</h1><div style=\"background-color:#6dce98\"><h1 style=\"background-color:MediumSeaGreen\" >Only 2200 left to go!</h1><img id=\"box\" src=\"img/prizes/coins2.png\"></img><img id=\"box\" src=\"img/empty/blueopenbox.png\"></img></div>","key_press":null,"trial_type":"html-keyboard-response","trial_index":135,"time_elapsed":585835,"internal_node_id":"0.0-19.55-1.55"},{"rt":511,"stimulus":"<p>Choose a box,</p>","button_pressed":0,"trial_type":"html-button-response","trial_index":136,"time_elapsed":586355,"internal_node_id":"0.0-19.56-0.56"},{"reward":100,"trial_type":"html-keyboard-response","trial_index":137,"time_elapsed":586356,"internal_node_id":"0.0-19.56-1.56"},{"penalty":250,"trial_type":"html-keyboard-response","trial_index":137,"time_elapsed":586356,"internal_node_id":"0.0-19.56-1.56"},{"fined":false,"trial_type":"html-keyboard-response","trial_index":137,"time_elapsed":586356,"internal_node_id":"0.0-19.56-1.56"},{"rt":null,"stimulus":"<div style=\"background-color:#6dce98\"><h1 style=\"background-color:MediumSeaGreen\" >You earned 100 coins! Well done!</h1><div style=\"background-color:#6dce98\"><h1 style=\"background-color:MediumSeaGreen\" >Only 2100 left to go!</h1><img id=\"box\" src=\"img/prizes/coins2.png\"></img><img id=\"box\" src=\"img/empty/blueopenbox.png\"></img></div>","key_press":null,"trial_type":"html-keyboard-response","trial_index":137,"time_elapsed":589364,"internal_node_id":"0.0-19.56-1.56"},{"rt":495,"stimulus":"<p>Choose a box,</p>","button_pressed":0,"trial_type":"html-button-response","trial_index":138,"time_elapsed":589865,"internal_node_id":"0.0-19.57-0.57"},{"reward":100,"trial_type":"html-keyboard-response","trial_index":139,"time_elapsed":589865,"internal_node_id":"0.0-19.57-1.57"},{"penalty":250,"trial_type":"html-keyboard-response","trial_index":139,"time_elapsed":589865,"internal_node_id":"0.0-19.57-1.57"},{"fined":true,"trial_type":"html-keyboard-response","trial_index":139,"time_elapsed":589865,"internal_node_id":"0.0-19.57-1.57"},{"rt":null,"stimulus":"<div style=\"background-color:#ff7157\"><h1 style=\"background-color:MediumSeaGreen\">You earned 100 coins</h1><h1 h1 style=\"background-color:Tomato\">but you have recieved a fine of 250 coins</h1><h1 style=\"background-color:Tomato\">Remember, you need to keep going until you have 3000 coins!</h1><img id=\"box\" src=\"img/prizes/250.png\"></img><img id=\"box\" src=\"img/sad/blueopenboxsadthumb.png\"></img></div>","key_press":null,"trial_type":"html-keyboard-response","trial_index":139,"time_elapsed":592884,"internal_node_id":"0.0-19.57-1.57"},{"rt":1017,"stimulus":"<p>Choose a box,</p>","button_pressed":3,"trial_type":"html-button-response","trial_index":140,"time_elapsed":593907,"internal_node_id":"0.0-19.58-0.58"},{"reward":50,"trial_type":"html-keyboard-response","trial_index":141,"time_elapsed":593907,"internal_node_id":"0.0-19.58-1.58"},{"penalty":250,"trial_type":"html-keyboard-response","trial_index":141,"time_elapsed":593907,"internal_node_id":"0.0-19.58-1.58"},{"fined":false,"trial_type":"html-keyboard-response","trial_index":141,"time_elapsed":593907,"internal_node_id":"0.0-19.58-1.58"},{"rt":null,"stimulus":"<div style=\"background-color:#6dce98\"><h1 style=\"background-color:MediumSeaGreen\" >You earned 50 coins! Well done!</h1><div style=\"background-color:#6dce98\"><h1 style=\"background-color:MediumSeaGreen\" >Only 2200 left to go!</h1><img id=\"box\" src=\"img/prizes/coins.png\"></img><img id=\"box\" src=\"img/empty/redopenbox.png\"></img></div>","key_press":null,"trial_type":"html-keyboard-response","trial_index":141,"time_elapsed":596924,"internal_node_id":"0.0-19.58-1.58"},{"rt":482,"stimulus":"<p>Choose a box,</p>","button_pressed":3,"trial_type":"html-button-response","trial_index":142,"time_elapsed":597412,"internal_node_id":"0.0-19.59-0.59"},{"reward":50,"trial_type":"html-keyboard-response","trial_index":143,"time_elapsed":597412,"internal_node_id":"0.0-19.59-1.59"},{"penalty":250,"trial_type":"html-keyboard-response","trial_index":143,"time_elapsed":597412,"internal_node_id":"0.0-19.59-1.59"},{"fined":false,"trial_type":"html-keyboard-response","trial_index":143,"time_elapsed":597412,"internal_node_id":"0.0-19.59-1.59"},{"rt":null,"stimulus":"<div style=\"background-color:#6dce98\"><h1 style=\"background-color:MediumSeaGreen\" >You earned 50 coins! Well done!</h1><div style=\"background-color:#6dce98\"><h1 style=\"background-color:MediumSeaGreen\" >Only 2150 left to go!</h1><img id=\"box\" src=\"img/prizes/coins.png\"></img><img id=\"box\" src=\"img/empty/redopenbox.png\"></img></div>","key_press":null,"trial_type":"html-keyboard-response","trial_index":143,"time_elapsed":600424,"internal_node_id":"0.0-19.59-1.59"},{"rt":690,"stimulus":"<p>Choose a box,</p>","button_pressed":3,"trial_type":"html-button-response","trial_index":144,"time_elapsed":601122,"internal_node_id":"0.0-19.60-0.60"},{"reward":50,"trial_type":"html-keyboard-response","trial_index":145,"time_elapsed":601122,"internal_node_id":"0.0-19.60-1.60"},{"penalty":250,"trial_type":"html-keyboard-response","trial_index":145,"time_elapsed":601122,"internal_node_id":"0.0-19.60-1.60"},{"fined":false,"trial_type":"html-keyboard-response","trial_index":145,"time_elapsed":601122,"internal_node_id":"0.0-19.60-1.60"},{"rt":null,"stimulus":"<div style=\"background-color:#6dce98\"><h1 style=\"background-color:MediumSeaGreen\" >You earned 50 coins! Well done!</h1><div style=\"background-color:#6dce98\"><h1 style=\"background-color:MediumSeaGreen\" >Only 2100 left to go!</h1><img id=\"box\" src=\"img/prizes/coins.png\"></img><img id=\"box\" src=\"img/empty/redopenbox.png\"></img></div>","key_press":null,"trial_type":"html-keyboard-response","trial_index":145,"time_elapsed":604134,"internal_node_id":"0.0-19.60-1.60"},{"rt":1025,"stimulus":"<p>Choose a box,</p>","button_pressed":3,"trial_type":"html-button-response","trial_index":146,"time_elapsed":605167,"internal_node_id":"0.0-19.61-0.61"},{"reward":50,"trial_type":"html-keyboard-response","trial_index":147,"time_elapsed":605167,"internal_node_id":"0.0-19.61-1.61"},{"penalty":250,"trial_type":"html-keyboard-response","trial_index":147,"time_elapsed":605167,"internal_node_id":"0.0-19.61-1.61"},{"fined":false,"trial_type":"html-keyboard-response","trial_index":147,"time_elapsed":605168,"internal_node_id":"0.0-19.61-1.61"},{"rt":null,"stimulus":"<div style=\"background-color:#6dce98\"><h1 style=\"background-color:MediumSeaGreen\" >You earned 50 coins! Well done!</h1><div style=\"background-color:#6dce98\"><h1 style=\"background-color:MediumSeaGreen\" >Only 2050 left to go!</h1><img id=\"box\" src=\"img/prizes/coins.png\"></img><img id=\"box\" src=\"img/empty/redopenbox.png\"></img></div>","key_press":null,"trial_type":"html-keyboard-response","trial_index":147,"time_elapsed":608174,"internal_node_id":"0.0-19.61-1.61"},{"rt":647,"stimulus":"<p>Choose a box,</p>","button_pressed":3,"trial_type":"html-button-response","trial_index":148,"time_elapsed":608826,"internal_node_id":"0.0-19.62-0.62"},{"reward":50,"trial_type":"html-keyboard-response","trial_index":149,"time_elapsed":608827,"internal_node_id":"0.0-19.62-1.62"},{"penalty":250,"trial_type":"html-keyboard-response","trial_index":149,"time_elapsed":608828,"internal_node_id":"0.0-19.62-1.62"},{"fined":false,"trial_type":"html-keyboard-response","trial_index":149,"time_elapsed":608828,"internal_node_id":"0.0-19.62-1.62"},{"rt":null,"stimulus":"<div style=\"background-color:#6dce98\"><h1 style=\"background-color:MediumSeaGreen\" >You earned 50 coins! Well done!</h1><div style=\"background-color:#6dce98\"><h1 style=\"background-color:MediumSeaGreen\" >Only 2000 left to go!</h1><img id=\"box\" src=\"img/prizes/coins.png\"></img><img id=\"box\" src=\"img/empty/redopenbox.png\"></img></div>","key_press":null,"trial_type":"html-keyboard-response","trial_index":149,"time_elapsed":611834,"internal_node_id":"0.0-19.62-1.62"},{"rt":698,"stimulus":"<p>Choose a box,</p>","button_pressed":3,"trial_type":"html-button-response","trial_index":150,"time_elapsed":612539,"internal_node_id":"0.0-19.63-0.63"},{"reward":50,"trial_type":"html-keyboard-response","trial_index":151,"time_elapsed":612541,"internal_node_id":"0.0-19.63-1.63"},{"penalty":250,"trial_type":"html-keyboard-response","trial_index":151,"time_elapsed":612541,"internal_node_id":"0.0-19.63-1.63"},{"fined":true,"trial_type":"html-keyboard-response","trial_index":151,"time_elapsed":612541,"internal_node_id":"0.0-19.63-1.63"},{"rt":null,"stimulus":"<div style=\"background-color:#ff7157\"><h1 style=\"background-color:MediumSeaGreen\">You earned 50 coins</h1><h1 h1 style=\"background-color:Tomato\">but you have recieved a fine of 250 coins</h1><h1 style=\"background-color:Tomato\">Remember, you need to keep going until you have 3000 coins!</h1><img id=\"box\" src=\"img/prizes/250.png\"></img><img id=\"box\" src=\"img/sad/redopenboxsadthumb.png\"></img></div>","key_press":null,"trial_type":"html-keyboard-response","trial_index":151,"time_elapsed":615553,"internal_node_id":"0.0-19.63-1.63"},{"rt":801,"stimulus":"<p>Choose a box,</p>","button_pressed":2,"trial_type":"html-button-response","trial_index":152,"time_elapsed":616357,"internal_node_id":"0.0-19.64-0.64"},{"reward":50,"trial_type":"html-keyboard-response","trial_index":153,"time_elapsed":616357,"internal_node_id":"0.0-19.64-1.64"},{"penalty":50,"trial_type":"html-keyboard-response","trial_index":153,"time_elapsed":616357,"internal_node_id":"0.0-19.64-1.64"},{"fined":true,"trial_type":"html-keyboard-response","trial_index":153,"time_elapsed":616357,"internal_node_id":"0.0-19.64-1.64"},{"rt":null,"stimulus":"<div style=\"background-color:#ff7157\"><h1 style=\"background-color:MediumSeaGreen\">You earned 50 coins</h1><h1 h1 style=\"background-color:Tomato\">but you have recieved a fine of 50 coins</h1><h1 style=\"background-color:Tomato\">Remember, you need to keep going until you have 3000 coins!</h1><img id=\"box\" src=\"img/prizes/50.png\"></img><img id=\"box\" src=\"img/sad/purpleopenboxsadthumb.png\"></img></div>","key_press":null,"trial_type":"html-keyboard-response","trial_index":153,"time_elapsed":619366,"internal_node_id":"0.0-19.64-1.64"},{"rt":583,"stimulus":"<p>Choose a box,</p>","button_pressed":1,"trial_type":"html-button-response","trial_index":154,"time_elapsed":619955,"internal_node_id":"0.0-19.65-0.65"},{"reward":100,"trial_type":"html-keyboard-response","trial_index":155,"time_elapsed":619956,"internal_node_id":"0.0-19.65-1.65"},{"penalty":1250,"trial_type":"html-keyboard-response","trial_index":155,"time_elapsed":619956,"internal_node_id":"0.0-19.65-1.65"},{"fined":false,"trial_type":"html-keyboard-response","trial_index":155,"time_elapsed":619956,"internal_node_id":"0.0-19.65-1.65"},{"rt":null,"stimulus":"<div style=\"background-color:#6dce98\"><h1 style=\"background-color:MediumSeaGreen\" >You earned 100 coins! Well done!</h1><div style=\"background-color:#6dce98\"><h1 style=\"background-color:MediumSeaGreen\" >Only 2100 left to go!</h1><img id=\"box\" src=\"img/prizes/coins2.png\"></img><img id=\"box\" src=\"img/empty/greenopenbox.png\"></img></div>","key_press":null,"trial_type":"html-keyboard-response","trial_index":155,"time_elapsed":622969,"internal_node_id":"0.0-19.65-1.65"},{"rt":475,"stimulus":"<p>Choose a box,</p>","button_pressed":1,"trial_type":"html-button-response","trial_index":156,"time_elapsed":623452,"internal_node_id":"0.0-19.66-0.66"},{"reward":100,"trial_type":"html-keyboard-response","trial_index":157,"time_elapsed":623454,"internal_node_id":"0.0-19.66-1.66"},{"penalty":1250,"trial_type":"html-keyboard-response","trial_index":157,"time_elapsed":623454,"internal_node_id":"0.0-19.66-1.66"},{"fined":false,"trial_type":"html-keyboard-response","trial_index":157,"time_elapsed":623454,"internal_node_id":"0.0-19.66-1.66"},{"rt":null,"stimulus":"<div style=\"background-color:#6dce98\"><h1 style=\"background-color:MediumSeaGreen\" >You earned 100 coins! Well done!</h1><div style=\"background-color:#6dce98\"><h1 style=\"background-color:MediumSeaGreen\" >Only 2000 left to go!</h1><img id=\"box\" src=\"img/prizes/coins2.png\"></img><img id=\"box\" src=\"img/empty/greenopenbox.png\"></img></div>","key_press":null,"trial_type":"html-keyboard-response","trial_index":157,"time_elapsed":626484,"internal_node_id":"0.0-19.66-1.66"},{"rt":505,"stimulus":"<p>Choose a box,</p>","button_pressed":1,"trial_type":"html-button-response","trial_index":158,"time_elapsed":626995,"internal_node_id":"0.0-19.67-0.67"},{"reward":100,"trial_type":"html-keyboard-response","trial_index":159,"time_elapsed":626996,"internal_node_id":"0.0-19.67-1.67"},{"penalty":1250,"trial_type":"html-keyboard-response","trial_index":159,"time_elapsed":626996,"internal_node_id":"0.0-19.67-1.67"},{"fined":false,"trial_type":"html-keyboard-response","trial_index":159,"time_elapsed":626996,"internal_node_id":"0.0-19.67-1.67"},{"rt":null,"stimulus":"<div style=\"background-color:#6dce98\"><h1 style=\"background-color:MediumSeaGreen\" >You earned 100 coins! Well done!</h1><div style=\"background-color:#6dce98\"><h1 style=\"background-color:MediumSeaGreen\" >Only 1900 left to go!</h1><img id=\"box\" src=\"img/prizes/coins2.png\"></img><img id=\"box\" src=\"img/empty/greenopenbox.png\"></img></div>","key_press":null,"trial_type":"html-keyboard-response","trial_index":159,"time_elapsed":630016,"internal_node_id":"0.0-19.67-1.67"},{"rt":469,"stimulus":"<p>Choose a box,</p>","button_pressed":1,"trial_type":"html-button-response","trial_index":160,"time_elapsed":630491,"internal_node_id":"0.0-19.68-0.68"},{"reward":100,"trial_type":"html-keyboard-response","trial_index":161,"time_elapsed":630492,"internal_node_id":"0.0-19.68-1.68"},{"penalty":1250,"trial_type":"html-keyboard-response","trial_index":161,"time_elapsed":630492,"internal_node_id":"0.0-19.68-1.68"},{"fined":false,"trial_type":"html-keyboard-response","trial_index":161,"time_elapsed":630492,"internal_node_id":"0.0-19.68-1.68"},{"rt":null,"stimulus":"<div style=\"background-color:#6dce98\"><h1 style=\"background-color:MediumSeaGreen\" >You earned 100 coins! Well done!</h1><div style=\"background-color:#6dce98\"><h1 style=\"background-color:MediumSeaGreen\" >Only 1800 left to go!</h1><img id=\"box\" src=\"img/prizes/coins2.png\"></img><img id=\"box\" src=\"img/empty/greenopenbox.png\"></img></div>","key_press":null,"trial_type":"html-keyboard-response","trial_index":161,"time_elapsed":633504,"internal_node_id":"0.0-19.68-1.68"},{"rt":526,"stimulus":"<p>Choose a box,</p>","button_pressed":1,"trial_type":"html-button-response","trial_index":162,"time_elapsed":634035,"internal_node_id":"0.0-19.69-0.69"},{"reward":100,"trial_type":"html-keyboard-response","trial_index":163,"time_elapsed":634036,"internal_node_id":"0.0-19.69-1.69"},{"penalty":1250,"trial_type":"html-keyboard-response","trial_index":163,"time_elapsed":634036,"internal_node_id":"0.0-19.69-1.69"},{"fined":false,"trial_type":"html-keyboard-response","trial_index":163,"time_elapsed":634036,"internal_node_id":"0.0-19.69-1.69"},{"rt":null,"stimulus":"<div style=\"background-color:#6dce98\"><h1 style=\"background-color:MediumSeaGreen\" >You earned 100 coins! Well done!</h1><div style=\"background-color:#6dce98\"><h1 style=\"background-color:MediumSeaGreen\" >Only 1700 left to go!</h1><img id=\"box\" src=\"img/prizes/coins2.png\"></img><img id=\"box\" src=\"img/empty/greenopenbox.png\"></img></div>","key_press":null,"trial_type":"html-keyboard-response","trial_index":163,"time_elapsed":637055,"internal_node_id":"0.0-19.69-1.69"},{"rt":505,"stimulus":"<p>Choose a box,</p>","button_pressed":1,"trial_type":"html-button-response","trial_index":164,"time_elapsed":637563,"internal_node_id":"0.0-19.70-0.70"},{"reward":100,"trial_type":"html-keyboard-response","trial_index":165,"time_elapsed":637563,"internal_node_id":"0.0-19.70-1.70"},{"penalty":1250,"trial_type":"html-keyboard-response","trial_index":165,"time_elapsed":637564,"internal_node_id":"0.0-19.70-1.70"},{"fined":false,"trial_type":"html-keyboard-response","trial_index":165,"time_elapsed":637564,"internal_node_id":"0.0-19.70-1.70"},{"rt":null,"stimulus":"<div style=\"background-color:#6dce98\"><h1 style=\"background-color:MediumSeaGreen\" >You earned 100 coins! Well done!</h1><div style=\"background-color:#6dce98\"><h1 style=\"background-color:MediumSeaGreen\" >Only 1600 left to go!</h1><img id=\"box\" src=\"img/prizes/coins2.png\"></img><img id=\"box\" src=\"img/empty/greenopenbox.png\"></img></div>","key_press":null,"trial_type":"html-keyboard-response","trial_index":165,"time_elapsed":640575,"internal_node_id":"0.0-19.70-1.70"},{"rt":526,"stimulus":"<p>Choose a box,</p>","button_pressed":1,"trial_type":"html-button-response","trial_index":166,"time_elapsed":641107,"internal_node_id":"0.0-19.71-0.71"},{"reward":100,"trial_type":"html-keyboard-response","trial_index":167,"time_elapsed":641108,"internal_node_id":"0.0-19.71-1.71"},{"penalty":1250,"trial_type":"html-keyboard-response","trial_index":167,"time_elapsed":641108,"internal_node_id":"0.0-19.71-1.71"},{"fined":false,"trial_type":"html-keyboard-response","trial_index":167,"time_elapsed":641108,"internal_node_id":"0.0-19.71-1.71"},{"rt":null,"stimulus":"<div style=\"background-color:#6dce98\"><h1 style=\"background-color:MediumSeaGreen\" >You earned 100 coins! Well done!</h1><div style=\"background-color:#6dce98\"><h1 style=\"background-color:MediumSeaGreen\" >Only 1500 left to go!</h1><img id=\"box\" src=\"img/prizes/coins2.png\"></img><img id=\"box\" src=\"img/empty/greenopenbox.png\"></img></div>","key_press":null,"trial_type":"html-keyboard-response","trial_index":167,"time_elapsed":644114,"internal_node_id":"0.0-19.71-1.71"},{"rt":850,"stimulus":"<p>Choose a box,</p>","button_pressed":0,"trial_type":"html-button-response","trial_index":168,"time_elapsed":644971,"internal_node_id":"0.0-19.72-0.72"},{"reward":100,"trial_type":"html-keyboard-response","trial_index":169,"time_elapsed":644972,"internal_node_id":"0.0-19.72-1.72"},{"penalty":250,"trial_type":"html-keyboard-response","trial_index":169,"time_elapsed":644972,"internal_node_id":"0.0-19.72-1.72"},{"fined":true,"trial_type":"html-keyboard-response","trial_index":169,"time_elapsed":644972,"internal_node_id":"0.0-19.72-1.72"},{"rt":null,"stimulus":"<div style=\"background-color:#ff7157\"><h1 style=\"background-color:MediumSeaGreen\">You earned 100 coins</h1><h1 h1 style=\"background-color:Tomato\">but you have recieved a fine of 250 coins</h1><h1 style=\"background-color:Tomato\">Remember, you need to keep going until you have 3000 coins!</h1><img id=\"box\" src=\"img/prizes/250.png\"></img><img id=\"box\" src=\"img/sad/blueopenboxsadthumb.png\"></img></div>","key_press":null,"trial_type":"html-keyboard-response","trial_index":169,"time_elapsed":647984,"internal_node_id":"0.0-19.72-1.72"},{"rt":517,"stimulus":"<p>Choose a box,</p>","button_pressed":1,"trial_type":"html-button-response","trial_index":170,"time_elapsed":648508,"internal_node_id":"0.0-19.73-0.73"},{"reward":100,"trial_type":"html-keyboard-response","trial_index":171,"time_elapsed":648508,"internal_node_id":"0.0-19.73-1.73"},{"penalty":1250,"trial_type":"html-keyboard-response","trial_index":171,"time_elapsed":648509,"internal_node_id":"0.0-19.73-1.73"},{"fined":false,"trial_type":"html-keyboard-response","trial_index":171,"time_elapsed":648509,"internal_node_id":"0.0-19.73-1.73"},{"rt":null,"stimulus":"<div style=\"background-color:#6dce98\"><h1 style=\"background-color:MediumSeaGreen\" >You earned 100 coins! Well done!</h1><div style=\"background-color:#6dce98\"><h1 style=\"background-color:MediumSeaGreen\" >Only 1550 left to go!</h1><img id=\"box\" src=\"img/prizes/coins2.png\"></img><img id=\"box\" src=\"img/empty/greenopenbox.png\"></img></div>","key_press":null,"trial_type":"html-keyboard-response","trial_index":171,"time_elapsed":651519,"internal_node_id":"0.0-19.73-1.73"},{"rt":927,"stimulus":"<p>Choose a box,</p>","button_pressed":0,"trial_type":"html-button-response","trial_index":172,"time_elapsed":652452,"internal_node_id":"0.0-19.74-0.74"},{"reward":100,"trial_type":"html-keyboard-response","trial_index":173,"time_elapsed":652453,"internal_node_id":"0.0-19.74-1.74"},{"penalty":250,"trial_type":"html-keyboard-response","trial_index":173,"time_elapsed":652453,"internal_node_id":"0.0-19.74-1.74"},{"fined":false,"trial_type":"html-keyboard-response","trial_index":173,"time_elapsed":652453,"internal_node_id":"0.0-19.74-1.74"},{"rt":null,"stimulus":"<div style=\"background-color:#6dce98\"><h1 style=\"background-color:MediumSeaGreen\" >You earned 100 coins! Well done!</h1><div style=\"background-color:#6dce98\"><h1 style=\"background-color:MediumSeaGreen\" >Only 1450 left to go!</h1><img id=\"box\" src=\"img/prizes/coins2.png\"></img><img id=\"box\" src=\"img/empty/blueopenbox.png\"></img></div>","key_press":null,"trial_type":"html-keyboard-response","trial_index":173,"time_elapsed":655476,"internal_node_id":"0.0-19.74-1.74"},{"rt":681,"stimulus":"<p>Choose a box,</p>","button_pressed":0,"trial_type":"html-button-response","trial_index":174,"time_elapsed":656164,"internal_node_id":"0.0-19.75-0.75"},{"reward":100,"trial_type":"html-keyboard-response","trial_index":175,"time_elapsed":656164,"internal_node_id":"0.0-19.75-1.75"},{"penalty":250,"trial_type":"html-keyboard-response","trial_index":175,"time_elapsed":656164,"internal_node_id":"0.0-19.75-1.75"},{"fined":true,"trial_type":"html-keyboard-response","trial_index":175,"time_elapsed":656165,"internal_node_id":"0.0-19.75-1.75"},{"rt":null,"stimulus":"<div style=\"background-color:#ff7157\"><h1 style=\"background-color:MediumSeaGreen\">You earned 100 coins</h1><h1 h1 style=\"background-color:Tomato\">but you have recieved a fine of 250 coins</h1><h1 style=\"background-color:Tomato\">Remember, you need to keep going until you have 3000 coins!</h1><img id=\"box\" src=\"img/prizes/250.png\"></img><img id=\"box\" src=\"img/sad/blueopenboxsadthumb.png\"></img></div>","key_press":null,"trial_type":"html-keyboard-response","trial_index":175,"time_elapsed":659184,"internal_node_id":"0.0-19.75-1.75"},{"rt":456,"stimulus":"<p>Choose a box,</p>","button_pressed":1,"trial_type":"html-button-response","trial_index":176,"time_elapsed":659644,"internal_node_id":"0.0-19.76-0.76"},{"reward":100,"trial_type":"html-keyboard-response","trial_index":177,"time_elapsed":659644,"internal_node_id":"0.0-19.76-1.76"},{"penalty":1250,"trial_type":"html-keyboard-response","trial_index":177,"time_elapsed":659644,"internal_node_id":"0.0-19.76-1.76"},{"fined":false,"trial_type":"html-keyboard-response","trial_index":177,"time_elapsed":659644,"internal_node_id":"0.0-19.76-1.76"},{"rt":null,"stimulus":"<div style=\"background-color:#6dce98\"><h1 style=\"background-color:MediumSeaGreen\" >You earned 100 coins! Well done!</h1><div style=\"background-color:#6dce98\"><h1 style=\"background-color:MediumSeaGreen\" >Only 1500 left to go!</h1><img id=\"box\" src=\"img/prizes/coins2.png\"></img><img id=\"box\" src=\"img/empty/greenopenbox.png\"></img></div>","key_press":null,"trial_type":"html-keyboard-response","trial_index":177,"time_elapsed":662667,"internal_node_id":"0.0-19.76-1.76"},{"rt":566,"stimulus":"<p>Choose a box,</p>","button_pressed":1,"trial_type":"html-button-response","trial_index":178,"time_elapsed":663239,"internal_node_id":"0.0-19.77-0.77"},{"reward":100,"trial_type":"html-keyboard-response","trial_index":179,"time_elapsed":663239,"internal_node_id":"0.0-19.77-1.77"},{"penalty":1250,"trial_type":"html-keyboard-response","trial_index":179,"time_elapsed":663239,"internal_node_id":"0.0-19.77-1.77"},{"fined":false,"trial_type":"html-keyboard-response","trial_index":179,"time_elapsed":663239,"internal_node_id":"0.0-19.77-1.77"},{"rt":null,"stimulus":"<div style=\"background-color:#6dce98\"><h1 style=\"background-color:MediumSeaGreen\" >You earned 100 coins! Well done!</h1><div style=\"background-color:#6dce98\"><h1 style=\"background-color:MediumSeaGreen\" >Only 1400 left to go!</h1><img id=\"box\" src=\"img/prizes/coins2.png\"></img><img id=\"box\" src=\"img/empty/greenopenbox.png\"></img></div>","key_press":null,"trial_type":"html-keyboard-response","trial_index":179,"time_elapsed":666247,"internal_node_id":"0.0-19.77-1.77"},{"rt":479,"stimulus":"<p>Choose a box,</p>","button_pressed":1,"trial_type":"html-button-response","trial_index":180,"time_elapsed":666733,"internal_node_id":"0.0-19.78-0.78"},{"reward":100,"trial_type":"html-keyboard-response","trial_index":181,"time_elapsed":666733,"internal_node_id":"0.0-19.78-1.78"},{"penalty":1250,"trial_type":"html-keyboard-response","trial_index":181,"time_elapsed":666733,"internal_node_id":"0.0-19.78-1.78"},{"fined":false,"trial_type":"html-keyboard-response","trial_index":181,"time_elapsed":666733,"internal_node_id":"0.0-19.78-1.78"},{"rt":null,"stimulus":"<div style=\"background-color:#6dce98\"><h1 style=\"background-color:MediumSeaGreen\" >You earned 100 coins! Well done!</h1><div style=\"background-color:#6dce98\"><h1 style=\"background-color:MediumSeaGreen\" >Only 1300 left to go!</h1><img id=\"box\" src=\"img/prizes/coins2.png\"></img><img id=\"box\" src=\"img/empty/greenopenbox.png\"></img></div>","key_press":null,"trial_type":"html-keyboard-response","trial_index":181,"time_elapsed":669748,"internal_node_id":"0.0-19.78-1.78"},{"rt":510,"stimulus":"<p>Choose a box,</p>","button_pressed":1,"trial_type":"html-button-response","trial_index":182,"time_elapsed":670268,"internal_node_id":"0.0-19.79-0.79"},{"reward":100,"trial_type":"html-keyboard-response","trial_index":183,"time_elapsed":670269,"internal_node_id":"0.0-19.79-1.79"},{"penalty":1250,"trial_type":"html-keyboard-response","trial_index":183,"time_elapsed":670269,"internal_node_id":"0.0-19.79-1.79"},{"fined":false,"trial_type":"html-keyboard-response","trial_index":183,"time_elapsed":670269,"internal_node_id":"0.0-19.79-1.79"},{"rt":null,"stimulus":"<div style=\"background-color:#6dce98\"><h1 style=\"background-color:MediumSeaGreen\" >You earned 100 coins! Well done!</h1><div style=\"background-color:#6dce98\"><h1 style=\"background-color:MediumSeaGreen\" >Only 1200 left to go!</h1><img id=\"box\" src=\"img/prizes/coins2.png\"></img><img id=\"box\" src=\"img/empty/greenopenbox.png\"></img></div>","key_press":null,"trial_type":"html-keyboard-response","trial_index":183,"time_elapsed":673277,"internal_node_id":"0.0-19.79-1.79"},{"rt":433,"stimulus":"<p>Choose a box,</p>","button_pressed":1,"trial_type":"html-button-response","trial_index":184,"time_elapsed":673717,"internal_node_id":"0.0-19.80-0.80"},{"reward":100,"trial_type":"html-keyboard-response","trial_index":185,"time_elapsed":673718,"internal_node_id":"0.0-19.80-1.80"},{"penalty":1250,"trial_type":"html-keyboard-response","trial_index":185,"time_elapsed":673718,"internal_node_id":"0.0-19.80-1.80"},{"fined":false,"trial_type":"html-keyboard-response","trial_index":185,"time_elapsed":673718,"internal_node_id":"0.0-19.80-1.80"},{"rt":null,"stimulus":"<div style=\"background-color:#6dce98\"><h1 style=\"background-color:MediumSeaGreen\" >You earned 100 coins! Well done!</h1><div style=\"background-color:#6dce98\"><h1 style=\"background-color:MediumSeaGreen\" >Only 1100 left to go!</h1><img id=\"box\" src=\"img/prizes/coins2.png\"></img><img id=\"box\" src=\"img/empty/greenopenbox.png\"></img></div>","key_press":null,"trial_type":"html-keyboard-response","trial_index":185,"time_elapsed":676726,"internal_node_id":"0.0-19.80-1.80"},{"rt":389,"stimulus":"<p>Choose a box,</p>","button_pressed":1,"trial_type":"html-button-response","trial_index":186,"time_elapsed":677117,"internal_node_id":"0.0-19.81-0.81"},{"reward":100,"trial_type":"html-keyboard-response","trial_index":187,"time_elapsed":677118,"internal_node_id":"0.0-19.81-1.81"},{"penalty":1250,"trial_type":"html-keyboard-response","trial_index":187,"time_elapsed":677118,"internal_node_id":"0.0-19.81-1.81"},{"fined":false,"trial_type":"html-keyboard-response","trial_index":187,"time_elapsed":677118,"internal_node_id":"0.0-19.81-1.81"},{"rt":null,"stimulus":"<div style=\"background-color:#6dce98\"><h1 style=\"background-color:MediumSeaGreen\" >You earned 100 coins! Well done!</h1><div style=\"background-color:#6dce98\"><h1 style=\"background-color:MediumSeaGreen\" >Only 1000 left to go!</h1><img id=\"box\" src=\"img/prizes/coins2.png\"></img><img id=\"box\" src=\"img/empty/greenopenbox.png\"></img></div>","key_press":null,"trial_type":"html-keyboard-response","trial_index":187,"time_elapsed":680127,"internal_node_id":"0.0-19.81-1.81"},{"rt":776,"stimulus":"<p>Choose a box,</p>","button_pressed":0,"trial_type":"html-button-response","trial_index":188,"time_elapsed":680911,"internal_node_id":"0.0-19.82-0.82"},{"reward":100,"trial_type":"html-keyboard-response","trial_index":189,"time_elapsed":680911,"internal_node_id":"0.0-19.82-1.82"},{"penalty":250,"trial_type":"html-keyboard-response","trial_index":189,"time_elapsed":680911,"internal_node_id":"0.0-19.82-1.82"},{"fined":true,"trial_type":"html-keyboard-response","trial_index":189,"time_elapsed":680911,"internal_node_id":"0.0-19.82-1.82"},{"rt":null,"stimulus":"<div style=\"background-color:#ff7157\"><h1 style=\"background-color:MediumSeaGreen\">You earned 100 coins</h1><h1 h1 style=\"background-color:Tomato\">but you have recieved a fine of 250 coins</h1><h1 style=\"background-color:Tomato\">Remember, you need to keep going until you have 3000 coins!</h1><img id=\"box\" src=\"img/prizes/250.png\"></img><img id=\"box\" src=\"img/sad/blueopenboxsadthumb.png\"></img></div>","key_press":null,"trial_type":"html-keyboard-response","trial_index":189,"time_elapsed":683927,"internal_node_id":"0.0-19.82-1.82"},{"rt":449,"stimulus":"<p>Choose a box,</p>","button_pressed":1,"trial_type":"html-button-response","trial_index":190,"time_elapsed":684382,"internal_node_id":"0.0-19.83-0.83"},{"reward":100,"trial_type":"html-keyboard-response","trial_index":191,"time_elapsed":684382,"internal_node_id":"0.0-19.83-1.83"},{"penalty":1250,"trial_type":"html-keyboard-response","trial_index":191,"time_elapsed":684382,"internal_node_id":"0.0-19.83-1.83"},{"fined":false,"trial_type":"html-keyboard-response","trial_index":191,"time_elapsed":684382,"internal_node_id":"0.0-19.83-1.83"},{"rt":null,"stimulus":"<div style=\"background-color:#6dce98\"><h1 style=\"background-color:MediumSeaGreen\" >You earned 100 coins! Well done!</h1><div style=\"background-color:#6dce98\"><h1 style=\"background-color:MediumSeaGreen\" >Only 1050 left to go!</h1><img id=\"box\" src=\"img/prizes/coins2.png\"></img><img id=\"box\" src=\"img/empty/greenopenbox.png\"></img></div>","key_press":null,"trial_type":"html-keyboard-response","trial_index":191,"time_elapsed":687406,"internal_node_id":"0.0-19.83-1.83"},{"rt":438,"stimulus":"<p>Choose a box,</p>","button_pressed":1,"trial_type":"html-button-response","trial_index":192,"time_elapsed":687852,"internal_node_id":"0.0-19.84-0.84"},{"reward":100,"trial_type":"html-keyboard-response","trial_index":193,"time_elapsed":687852,"internal_node_id":"0.0-19.84-1.84"},{"penalty":1250,"trial_type":"html-keyboard-response","trial_index":193,"time_elapsed":687852,"internal_node_id":"0.0-19.84-1.84"},{"fined":false,"trial_type":"html-keyboard-response","trial_index":193,"time_elapsed":687852,"internal_node_id":"0.0-19.84-1.84"},{"rt":null,"stimulus":"<div style=\"background-color:#6dce98\"><h1 style=\"background-color:MediumSeaGreen\" >You earned 100 coins! Well done!</h1><div style=\"background-color:#6dce98\"><h1 style=\"background-color:MediumSeaGreen\" >Only 950 left to go!</h1><img id=\"box\" src=\"img/prizes/coins2.png\"></img><img id=\"box\" src=\"img/empty/greenopenbox.png\"></img></div>","key_press":null,"trial_type":"html-keyboard-response","trial_index":193,"time_elapsed":690866,"internal_node_id":"0.0-19.84-1.84"},{"rt":508,"stimulus":"<p>Choose a box,</p>","button_pressed":1,"trial_type":"html-button-response","trial_index":194,"time_elapsed":691382,"internal_node_id":"0.0-19.85-0.85"},{"reward":100,"trial_type":"html-keyboard-response","trial_index":195,"time_elapsed":691383,"internal_node_id":"0.0-19.85-1.85"},{"penalty":1250,"trial_type":"html-keyboard-response","trial_index":195,"time_elapsed":691383,"internal_node_id":"0.0-19.85-1.85"},{"fined":false,"trial_type":"html-keyboard-response","trial_index":195,"time_elapsed":691383,"internal_node_id":"0.0-19.85-1.85"},{"rt":null,"stimulus":"<div style=\"background-color:#6dce98\"><h1 style=\"background-color:MediumSeaGreen\" >You earned 100 coins! Well done!</h1><div style=\"background-color:#6dce98\"><h1 style=\"background-color:MediumSeaGreen\" >Only 850 left to go!</h1><img id=\"box\" src=\"img/prizes/co