[{"view_history":"[{\"page_index\":0,\"viewing_time\":1811.359999992419},{\"page_index\":1,\"viewing_time\":1615.7750000129454},{\"page_index\":2,\"viewing_time\":1555.3749999962747},{\"page_index\":3,\"viewing_time\":3074.399999983143},{\"page_index\":4,\"viewing_time\":2422.840000013821},{\"page_index\":5,\"viewing_time\":6907.550000003539}]","rt":17387.649999989662,"trial_type":"instructions","trial_index":0,"time_elapsed":17389,"internal_node_id":"0.0-0.0"},{"rt":5439.085000019986,"responses":"{\"Q0\":\"Yes\",\"Q1\":\"Yes\",\"Q2\":\"Yes\"}","question_order":"[0,1,2]","trial_type":"survey-multi-choice","trial_index":1,"time_elapsed":22830,"internal_node_id":"0.0-1.0-0.0"},{"rt":16116.059999971185,"responses":"{\"Q0\":\"Yes\",\"Q1\":\"Yes\",\"Q2\":\"Yes\"}","question_order":"[0,1,2]","trial_type":"survey-multi-choice","trial_index":2,"time_elapsed":38947,"internal_node_id":"0.0-2.0-0.0"},{"rt":2373.1099999859,"responses":"{\"Q0\":\"5e99d66f3f9f96042c0b11c5\"}","trial_type":"survey-text","trial_index":3,"time_elapsed":41322,"internal_node_id":"0.0-3.0"},{"rt":4654.7499999869615,"responses":"{\"Q0\":\"Female\",\"Q1\":\"18-25\"}","question_order":"[0,1]","trial_type":"survey-multi-choice","trial_index":4,"time_elapsed":45978,"internal_node_id":"0.0-4.0"},{"rt":6891.795000003185,"responses":"{\"Q0\":\"none\"}","trial_type":"survey-text","trial_index":5,"time_elapsed":52871,"internal_node_id":"0.0-5.0"},{"view_history":"[{\"page_index\":0,\"viewing_time\":2119.509999989532}]","rt":2119.7900000261143,"trial_type":"instructions","trial_index":6,"time_elapsed":54991,"internal_node_id":"0.0-6.0"},{"rt":13695.355000032578,"responses":"{\"Interested\":3,\"Distressed\":2,\"Excited\":3,\"Upset\":1}","question_order":"[0,1,2,3]","trial_type":"survey-likert","trial_index":7,"time_elapsed":68689,"internal_node_id":"0.0-7.0"},{"rt":13054.340000031516,"responses":"{\"Strong\":3,\"Guilty\":0,\"Scared\":1,\"Hostile\":2}","question_order":"[0,1,2,3]","trial_type":"survey-likert","trial_index":8,"time_elapsed":81745,"internal_node_id":"0.0-8.0"},{"rt":10489.104999986012,"responses":"{\"Enthusiastic\":3,\"Proud\":4,\"Irritable\":3,\"Alert\":0}","question_order":"[0,1,2,3]","trial_type":"survey-likert","trial_index":9,"time_elapsed":92236,"internal_node_id":"0.0-9.0"},{"rt":11669.400000013411,"responses":"{\"Ashamed\":0,\"Inspired\":1,\"Nervous\":3,\"Determined\":3}","question_order":"[0,1,2,3]","trial_type":"survey-likert","trial_index":10,"time_elapsed":103906,"internal_node_id":"0.0-10.0"},{"rt":102274.46499996586,"responses":"{\"Attentive\":3,\"Jittery\":0,\"Active\":3,\"Afraid\":1}","question_order":"[0,1,2,3]","trial_type":"survey-likert","trial_index":11,"time_elapsed":206182,"internal_node_id":"0.0-11.0"},{"rt":15123.62500000745,"responses":"{\"Q0\":1,\"Q1\":1,\"Q2\":1,\"Q3\":2}","question_order":"[0,1,2,3]","trial_type":"survey-likert","trial_index":12,"time_elapsed":221307,"internal_node_id":"0.0-12.0"},{"rt":12325.339999981225,"responses":"{\"Q0\":2,\"Q1\":1,\"Q2\":1,\"Q3\":0}","question_order":"[0,1,2,3]","trial_type":"survey-likert","trial_index":13,"time_elapsed":233633,"internal_node_id":"0.0-13.0"},{"rt":37898.93500000471,"responses":"{\"Q0\":1,\"Q1\":2,\"Q2\":2,\"Q3\":2}","question_order":"[0,1,2,3]","trial_type":"survey-likert","trial_index":14,"time_elapsed":271534,"internal_node_id":"0.0-14.0"},{"rt":11794.999999983702,"responses":"{\"Q0\":1,\"Q1\":2,\"Q2\":0}","question_order":"[0,1,2]","trial_type":"survey-likert","trial_index":15,"time_elapsed":283330,"internal_node_id":"0.0-15.0"},{"view_history":"[{\"page_index\":0,\"viewing_time\":17514.504999970086},{\"page_index\":1,\"viewing_time\":19441.950000007637},{\"page_index\":2,\"viewing_time\":8098.900000040885}]","rt":45055.86000002222,"trial_type":"instructions","trial_index":16,"time_elapsed":328387,"internal_node_id":"0.0-16.0"},{"rt":1458.9150000247173,"stimulus":"<p>Choose a box,</p>","button_pressed":0,"trial_type":"html-button-response","trial_index":17,"time_elapsed":329852,"internal_node_id":"0.0-17.0-0.0"},{"reward":100,"trial_type":"html-keyboard-response","trial_index":18,"time_elapsed":329852,"internal_node_id":"0.0-17.0-1.0"},{"penalty":250,"trial_type":"html-keyboard-response","trial_index":18,"time_elapsed":329852,"internal_node_id":"0.0-17.0-1.0"},{"fined":false,"trial_type":"html-keyboard-response","trial_index":18,"time_elapsed":329852,"internal_node_id":"0.0-17.0-1.0"},{"rt":null,"stimulus":"<div style=\"background-color:#6dce98\"><h1 style=\"background-color:MediumSeaGreen\" >You earned 100 coins! Well done!</h1><div style=\"background-color:#6dce98\"><h1 style=\"background-color:MediumSeaGreen\" >Only 1400 left to go!</h1><img id=\"box\" src=\"img/prizes/coins2.png\"></img><img id=\"box\" src=\"img/empty/blueopenbox.png\"></img></div>","key_press":null,"trial_type":"html-keyboard-response","trial_index":18,"time_elapsed":332854,"internal_node_id":"0.0-17.0-1.0"},{"rt":357.70999995293096,"stimulus":"<p>Choose a box,</p>","button_pressed":3,"trial_type":"html-button-response","trial_index":19,"time_elapsed":333216,"internal_node_id":"0.0-17.0-0.1"},{"reward":50,"trial_type":"html-keyboard-response","trial_index":20,"time_elapsed":333216,"internal_node_id":"0.0-17.0-1.1"},{"penalty":250,"trial_type":"html-keyboard-response","trial_index":20,"time_elapsed":333216,"internal_node_id":"0.0-17.0-1.1"},{"fined":false,"trial_type":"html-keyboard-response","trial_index":20,"time_elapsed":333216,"internal_node_id":"0.0-17.0-1.1"},{"rt":null,"stimulus":"<div style=\"background-color:#6dce98\"><h1 style=\"background-color:MediumSeaGreen\" >You earned 50 coins! Well done!</h1><div style=\"background-color:#6dce98\"><h1 style=\"background-color:MediumSeaGreen\" >Only 1350 left to go!</h1><img id=\"box\" src=\"img/prizes/coins.png\"></img><img id=\"box\" src=\"img/empty/redopenbox.png\"></img></div>","key_press":null,"trial_type":"html-keyboard-response","trial_index":20,"time_elapsed":336224,"internal_node_id":"0.0-17.0-1.1"},{"rt":3075.8700000005774,"stimulus":"<p>Choose a box,</p>","button_pressed":1,"trial_type":"html-button-response","trial_index":21,"time_elapsed":339301,"internal_node_id":"0.0-17.0-0.2"},{"reward":100,"trial_type":"html-keyboard-response","trial_index":22,"time_elapsed":339301,"internal_node_id":"0.0-17.0-1.2"},{"penalty":1250,"trial_type":"html-keyboard-response","trial_index":22,"time_elapsed":339301,"internal_node_id":"0.0-17.0-1.2"},{"fined":false,"trial_type":"html-keyboard-response","trial_index":22,"time_elapsed":339301,"internal_node_id":"0.0-17.0-1.2"},{"rt":null,"stimulus":"<div style=\"background-color:#6dce98\"><h1 style=\"background-color:MediumSeaGreen\" >You earned 100 coins! Well done!</h1><div style=\"background-color:#6dce98\"><h1 style=\"background-color:MediumSeaGreen\" >Only 1250 left to go!</h1><img id=\"box\" src=\"img/prizes/coins2.png\"></img><img id=\"box\" src=\"img/empty/greenopenbox.png\"></img></div>","key_press":null,"trial_type":"html-keyboard-response","trial_index":22,"time_elapsed":342312,"internal_node_id":"0.0-17.0-1.2"},{"view_history":"[{\"page_index\":0,\"viewing_time\":3078.5850000102073}]","rt":3079.165000002831,"trial_type":"instructions","trial_index":23,"time_elapsed":345393,"internal_node_id":"0.0-18.0"},{"rt":1302.7299999957904,"stimulus":"<p>Choose a box,</p>","button_pressed":3,"trial_type":"html-button-response","trial_index":24,"time_elapsed":346699,"internal_node_id":"0.0-19.0-0.0"},{"reward":50,"trial_type":"html-keyboard-response","trial_index":25,"time_elapsed":346700,"internal_node_id":"0.0-19.0-1.0"},{"penalty":250,"trial_type":"html-keyboard-response","trial_index":25,"time_elapsed":346700,"internal_node_id":"0.0-19.0-1.0"},{"fined":true,"trial_type":"html-keyboard-response","trial_index":25,"time_elapsed":346700,"internal_node_id":"0.0-19.0-1.0"},{"rt":null,"stimulus":"<div style=\"background-color:#ff7157\"><h1 style=\"background-color:MediumSeaGreen\">You earned 50 coins</h1><h1 h1 style=\"background-color:Tomato\">but you have recieved a fine of 250 coins</h1><h1 style=\"background-color:Tomato\">Remember, you need to keep going until you have 3000 coins!</h1><img id=\"box\" src=\"img/prizes/250.png\"></img><img id=\"box\" src=\"img/sad/redopenboxsadthumb.png\"></img></div>","key_press":null,"trial_type":"html-keyboard-response","trial_index":25,"time_elapsed":349710,"internal_node_id":"0.0-19.0-1.0"},{"rt":2026.81999997003,"stimulus":"<p>Choose a box,</p>","button_pressed":3,"trial_type":"html-button-response","trial_index":26,"time_elapsed":351740,"internal_node_id":"0.0-19.1-0.1"},{"reward":50,"trial_type":"html-keyboard-response","trial_index":27,"time_elapsed":351741,"internal_node_id":"0.0-19.1-1.1"},{"penalty":250,"trial_type":"html-keyboard-response","trial_index":27,"time_elapsed":351741,"internal_node_id":"0.0-19.1-1.1"},{"fined":false,"trial_type":"html-keyboard-response","trial_index":27,"time_elapsed":351741,"internal_node_id":"0.0-19.1-1.1"},{"rt":null,"stimulus":"<div style=\"background-color:#6dce98\"><h1 style=\"background-color:MediumSeaGreen\" >You earned 50 coins! Well done!</h1><div style=\"background-color:#6dce98\"><h1 style=\"background-color:MediumSeaGreen\" >Only 1650 left to go!</h1><img id=\"box\" src=\"img/prizes/coins.png\"></img><img id=\"box\" src=\"img/empty/redopenbox.png\"></img></div>","key_press":null,"trial_type":"html-keyboard-response","trial_index":27,"time_elapsed":354751,"internal_node_id":"0.0-19.1-1.1"},{"rt":1278.009999950882,"stimulus":"<p>Choose a box,</p>","button_pressed":2,"trial_type":"html-button-response","trial_index":28,"time_elapsed":356032,"internal_node_id":"0.0-19.2-0.2"},{"reward":50,"trial_type":"html-keyboard-response","trial_index":29,"time_elapsed":356033,"internal_node_id":"0.0-19.2-1.2"},{"penalty":50,"trial_type":"html-keyboard-response","trial_index":29,"time_elapsed":356033,"internal_node_id":"0.0-19.2-1.2"},{"fined":false,"trial_type":"html-keyboard-response","trial_index":29,"time_elapsed":356033,"internal_node_id":"0.0-19.2-1.2"},{"rt":null,"stimulus":"<div style=\"background-color:#6dce98\"><h1 style=\"background-color:MediumSeaGreen\" >You earned 50 coins! Well done!</h1><div style=\"background-color:#6dce98\"><h1 style=\"background-color:MediumSeaGreen\" >Only 1600 left to go!</h1><img id=\"box\" src=\"img/prizes/coins.png\"></img><img id=\"box\" src=\"img/empty/purpleopenbox.png\"></img></div>","key_press":null,"trial_type":"html-keyboard-response","trial_index":29,"time_elapsed":359041,"internal_node_id":"0.0-19.2-1.2"},{"rt":2628.7299999967217,"stimulus":"<p>Choose a box,</p>","button_pressed":2,"trial_type":"html-button-response","trial_index":30,"time_elapsed":361673,"internal_node_id":"0.0-19.3-0.3"},{"reward":50,"trial_type":"html-keyboard-response","trial_index":31,"time_elapsed":361674,"internal_node_id":"0.0-19.3-1.3"},{"penalty":50,"trial_type":"html-keyboard-response","trial_index":31,"time_elapsed":361674,"internal_node_id":"0.0-19.3-1.3"},{"fined":false,"trial_type":"html-keyboard-response","trial_index":31,"time_elapsed":361674,"internal_node_id":"0.0-19.3-1.3"},{"rt":null,"stimulus":"<div style=\"background-color:#6dce98\"><h1 style=\"background-color:MediumSeaGreen\" >You earned 50 coins! Well done!</h1><div style=\"background-color:#6dce98\"><h1 style=\"background-color:MediumSeaGreen\" >Only 1550 left to go!</h1><img id=\"box\" src=\"img/prizes/coins.png\"></img><img id=\"box\" src=\"img/empty/purpleopenbox.png\"></img></div>","key_press":null,"trial_type":"html-keyboard-response","trial_index":31,"time_elapsed":364688,"internal_node_id":"0.0-19.3-1.3"},{"rt":1451.824999996461,"stimulus":"<p>Choose a box,</p>","button_pressed":1,"trial_type":"html-button-response","trial_index":32,"time_elapsed":366143,"internal_node_id":"0.0-19.4-0.4"},{"reward":100,"trial_type":"html-keyboard-response","trial_index":33,"time_elapsed":366143,"internal_node_id":"0.0-19.4-1.4"},{"penalty":1250,"trial_type":"html-keyboard-response","trial_index":33,"time_elapsed":366143,"internal_node_id":"0.0-19.4-1.4"},{"fined":false,"trial_type":"html-keyboard-response","trial_index":33,"time_elapsed":366144,"internal_node_id":"0.0-19.4-1.4"},{"rt":null,"stimulus":"<div style=\"background-color:#6dce98\"><h1 style=\"background-color:MediumSeaGreen\" >You earned 100 coins! Well done!</h1><div style=\"background-color:#6dce98\"><h1 style=\"background-color:MediumSeaGreen\" >Only 1450 left to go!</h1><img id=\"box\" src=\"img/prizes/coins2.png\"></img><img id=\"box\" src=\"img/empty/greenopenbox.png\"></img></div>","key_press":null,"trial_type":"html-keyboard-response","trial_index":33,"time_elapsed":369148,"internal_node_id":"0.0-19.4-1.4"},{"rt":1140.9850000054576,"stimulus":"<p>Choose a box,</p>","button_pressed":3,"trial_type":"html-button-response","trial_index":34,"time_elapsed":370292,"internal_node_id":"0.0-19.5-0.5"},{"reward":50,"trial_type":"html-keyboard-response","trial_index":35,"time_elapsed":370293,"internal_node_id":"0.0-19.5-1.5"},{"penalty":250,"trial_type":"html-keyboard-response","trial_index":35,"time_elapsed":370293,"internal_node_id":"0.0-19.5-1.5"},{"fined":false,"trial_type":"html-keyboard-response","trial_index":35,"time_elapsed":370293,"internal_node_id":"0.0-19.5-1.5"},{"rt":null,"stimulus":"<div style=\"background-color:#6dce98\"><h1 style=\"background-color:MediumSeaGreen\" >You earned 50 coins! Well done!</h1><div style=\"background-color:#6dce98\"><h1 style=\"background-color:MediumSeaGreen\" >Only 1400 left to go!</h1><img id=\"box\" src=\"img/prizes/coins.png\"></img><img id=\"box\" src=\"img/empty/redopenbox.png\"></img></div>","key_press":null,"trial_type":"html-keyboard-response","trial_index":35,"time_elapsed":373303,"internal_node_id":"0.0-19.5-1.5"},{"rt":1496.404999983497,"stimulus":"<p>Choose a box,</p>","button_pressed":2,"trial_type":"html-button-response","trial_index":36,"time_elapsed":374802,"internal_node_id":"0.0-19.6-0.6"},{"reward":50,"trial_type":"html-keyboard-response","trial_index":37,"time_elapsed":374802,"internal_node_id":"0.0-19.6-1.6"},{"penalty":50,"trial_type":"html-keyboard-response","trial_index":37,"time_elapsed":374802,"internal_node_id":"0.0-19.6-1.6"},{"fined":true,"trial_type":"html-keyboard-response","trial_index":37,"time_elapsed":374802,"internal_node_id":"0.0-19.6-1.6"},{"rt":null,"stimulus":"<div style=\"background-color:#ff7157\"><h1 style=\"background-color:MediumSeaGreen\">You earned 50 coins</h1><h1 h1 style=\"background-color:Tomato\">but you have recieved a fine of 50 coins</h1><h1 style=\"background-color:Tomato\">Remember, you need to keep going until you have 3000 coins!</h1><img id=\"box\" src=\"img/prizes/50.png\"></img><img id=\"box\" src=\"img/sad/purpleopenboxsadthumb.png\"></img></div>","key_press":null,"trial_type":"html-keyboard-response","trial_index":37,"time_elapsed":377817,"internal_node_id":"0.0-19.6-1.6"},{"rt":1497.8399999672547,"stimulus":"<p>Choose a box,</p>","button_pressed":0,"trial_type":"html-button-response","trial_index":38,"time_elapsed":379317,"internal_node_id":"0.0-19.7-0.7"},{"reward":100,"trial_type":"html-keyboard-response","trial_index":39,"time_elapsed":379318,"internal_node_id":"0.0-19.7-1.7"},{"penalty":250,"trial_type":"html-keyboard-response","trial_index":39,"time_elapsed":379318,"internal_node_id":"0.0-19.7-1.7"},{"fined":false,"trial_type":"html-keyboard-response","trial_index":39,"time_elapsed":379318,"internal_node_id":"0.0-19.7-1.7"},{"rt":null,"stimulus":"<div style=\"background-color:#6dce98\"><h1 style=\"background-color:MediumSeaGreen\" >You earned 100 coins! Well done!</h1><div style=\"background-color:#6dce98\"><h1 style=\"background-color:MediumSeaGreen\" >Only 1300 left to go!</h1><img id=\"box\" src=\"img/prizes/coins2.png\"></img><img id=\"box\" src=\"img/empty/blueopenbox.png\"></img></div>","key_press":null,"trial_type":"html-keyboard-response","trial_index":39,"time_elapsed":382333,"internal_node_id":"0.0-19.7-1.7"},{"rt":1029.0299999760464,"stimulus":"<p>Choose a box,</p>","button_pressed":0,"trial_type":"html-button-response","trial_index":40,"time_elapsed":383364,"internal_node_id":"0.0-19.8-0.8"},{"reward":100,"trial_type":"html-keyboard-response","trial_index":41,"time_elapsed":383365,"internal_node_id":"0.0-19.8-1.8"},{"penalty":250,"trial_type":"html-keyboard-response","trial_index":41,"time_elapsed":383365,"internal_node_id":"0.0-19.8-1.8"},{"fined":true,"trial_type":"html-keyboard-response","trial_index":41,"time_elapsed":383365,"internal_node_id":"0.0-19.8-1.8"},{"rt":null,"stimulus":"<div style=\"background-color:#ff7157\"><h1 style=\"background-color:MediumSeaGreen\">You earned 100 coins</h1><h1 h1 style=\"background-color:Tomato\">but you have recieved a fine of 250 coins</h1><h1 style=\"background-color:Tomato\">Remember, you need to keep going until you have 3000 coins!</h1><img id=\"box\" src=\"img/prizes/250.png\"></img><img id=\"box\" src=\"img/sad/blueopenboxsadthumb.png\"></img></div>","key_press":null,"trial_type":"html-keyboard-response","trial_index":41,"time_elapsed":386381,"internal_node_id":"0.0-19.8-1.8"},{"rt":1158.0250000115484,"stimulus":"<p>Choose a box,</p>","button_pressed":3,"trial_type":"html-button-response","trial_index":42,"time_elapsed":387543,"internal_node_id":"0.0-19.9-0.9"},{"reward":50,"trial_type":"html-keyboard-response","trial_index":43,"time_elapsed":387544,"internal_node_id":"0.0-19.9-1.9"},{"penalty":250,"trial_type":"html-keyboard-response","trial_index":43,"time_elapsed":387544,"internal_node_id":"0.0-19.9-1.9"},{"fined":false,"trial_type":"html-keyboard-response","trial_index":43,"time_elapsed":387544,"internal_node_id":"0.0-19.9-1.9"},{"rt":null,"stimulus":"<div style=\"background-color:#6dce98\"><h1 style=\"background-color:MediumSeaGreen\" >You earned 50 coins! Well done!</h1><div style=\"background-color:#6dce98\"><h1 style=\"background-color:MediumSeaGreen\" >Only 1400 left to go!</h1><img id=\"box\" src=\"img/prizes/coins.png\"></img><img id=\"box\" src=\"img/empty/redopenbox.png\"></img></div>","key_press":null,"trial_type":"html-keyboard-response","trial_index":43,"time_elapsed":390546,"internal_node_id":"0.0-19.9-1.9"},{"rt":991.5449999971315,"stimulus":"<p>Choose a box,</p>","button_pressed":1,"trial_type":"html-button-response","trial_index":44,"time_elapsed":391541,"internal_node_id":"0.0-19.10-0.10"},{"reward":100,"trial_type":"html-keyboard-response","trial_index":45,"time_elapsed":391542,"internal_node_id":"0.0-19.10-1.10"},{"penalty":1250,"trial_type":"html-keyboard-response","trial_index":45,"time_elapsed":391542,"internal_node_id":"0.0-19.10-1.10"},{"fined":false,"trial_type":"html-keyboard-response","trial_index":45,"time_elapsed":391542,"internal_node_id":"0.0-19.10-1.10"},{"rt":null,"stimulus":"<div style=\"background-color:#6dce98\"><h1 style=\"background-color:MediumSeaGreen\" >You earned 100 coins! Well done!</h1><div style=\"background-color:#6dce98\"><h1 style=\"background-color:MediumSeaGreen\" >Only 1300 left to go!</h1><img id=\"box\" src=\"img/prizes/coins2.png\"></img><img id=\"box\" src=\"img/empty/greenopenbox.png\"></img></div>","key_press":null,"trial_type":"html-keyboard-response","trial_index":45,"time_elapsed":394548,"internal_node_id":"0.0-19.10-1.10"},{"rt":871.4900000486523,"stimulus":"<p>Choose a box,</p>","button_pressed":1,"trial_type":"html-button-response","trial_index":46,"time_elapsed":395423,"internal_node_id":"0.0-19.11-0.11"},{"reward":100,"trial_type":"html-keyboard-response","trial_index":47,"time_elapsed":395423,"internal_node_id":"0.0-19.11-1.11"},{"penalty":1250,"trial_type":"html-keyboard-response","trial_index":47,"time_elapsed":395423,"internal_node_id":"0.0-19.11-1.11"},{"fined":true,"trial_type":"html-keyboard-response","trial_index":47,"time_elapsed":395423,"internal_node_id":"0.0-19.11-1.11"},{"rt":null,"stimulus":"<div style=\"background-color:#ff7157\"><h1 style=\"background-color:MediumSeaGreen\">You earned 100 coins</h1><h1 h1 style=\"background-color:Tomato\">but you have recieved a fine of 1250 coins</h1><h1 style=\"background-color:Tomato\">Remember, you need to keep going until you have 3000 coins!</h1><img id=\"box\" src=\"img/prizes/1250.png\"></img><img id=\"box\" src=\"img/sad/greenopenboxsadthumb.png\"></img></div>","key_press":null,"trial_type":"html-keyboard-response","trial_index":47,"time_elapsed":398430,"internal_node_id":"0.0-19.11-1.11"},{"rt":988.5249999933876,"stimulus":"<p>Choose a box,</p>","button_pressed":3,"trial_type":"html-button-response","trial_index":48,"time_elapsed":399421,"internal_node_id":"0.0-19.12-0.12"},{"reward":50,"trial_type":"html-keyboard-response","trial_index":49,"time_elapsed":399422,"internal_node_id":"0.0-19.12-1.12"},{"penalty":250,"trial_type":"html-keyboard-response","trial_index":49,"time_elapsed":399422,"internal_node_id":"0.0-19.12-1.12"},{"fined":false,"trial_type":"html-keyboard-response","trial_index":49,"time_elapsed":399422,"internal_node_id":"0.0-19.12-1.12"},{"rt":null,"stimulus":"<div style=\"background-color:#6dce98\"><h1 style=\"background-color:MediumSeaGreen\" >You earned 50 coins! Well done!</h1><div style=\"background-color:#6dce98\"><h1 style=\"background-color:MediumSeaGreen\" >Only 2400 left to go!</h1><img id=\"box\" src=\"img/prizes/coins.png\"></img><img id=\"box\" src=\"img/empty/redopenbox.png\"></img></div>","key_press":null,"trial_type":"html-keyboard-response","trial_index":49,"time_elapsed":402424,"internal_node_id":"0.0-19.12-1.12"},{"rt":738.1649999879301,"stimulus":"<p>Choose a box,</p>","button_pressed":3,"trial_type":"html-button-response","trial_index":50,"time_elapsed":403165,"internal_node_id":"0.0-19.13-0.13"},{"reward":50,"trial_type":"html-keyboard-response","trial_index":51,"time_elapsed":403166,"internal_node_id":"0.0-19.13-1.13"},{"penalty":250,"trial_type":"html-keyboard-response","trial_index":51,"time_elapsed":403166,"internal_node_id":"0.0-19.13-1.13"},{"fined":false,"trial_type":"html-keyboard-response","trial_index":51,"time_elapsed":403166,"internal_node_id":"0.0-19.13-1.13"},{"rt":null,"stimulus":"<div style=\"background-color:#6dce98\"><h1 style=\"background-color:MediumSeaGreen\" >You earned 50 coins! Well done!</h1><div style=\"background-color:#6dce98\"><h1 style=\"background-color:MediumSeaGreen\" >Only 2350 left to go!</h1><img id=\"box\" src=\"img/prizes/coins.png\"></img><img id=\"box\" src=\"img/empty/redopenbox.png\"></img></div>","key_press":null,"trial_type":"html-keyboard-response","trial_index":51,"time_elapsed":406169,"internal_node_id":"0.0-19.13-1.13"},{"rt":748.1799999950454,"stimulus":"<p>Choose a box,</p>","button_pressed":3,"trial_type":"html-button-response","trial_index":52,"time_elapsed":406920,"internal_node_id":"0.0-19.14-0.14"},{"reward":50,"trial_type":"html-keyboard-response","trial_index":53,"time_elapsed":406921,"internal_node_id":"0.0-19.14-1.14"},{"penalty":250,"trial_type":"html-keyboard-response","trial_index":53,"time_elapsed":406921,"internal_node_id":"0.0-19.14-1.14"},{"fined":false,"trial_type":"html-keyboard-response","trial_index":53,"time_elapsed":406921,"internal_node_id":"0.0-19.14-1.14"},{"rt":null,"stimulus":"<div style=\"background-color:#6dce98\"><h1 style=\"background-color:MediumSeaGreen\" >You earned 50 coins! Well done!</h1><div style=\"background-color:#6dce98\"><h1 style=\"background-color:MediumSeaGreen\" >Only 2300 left to go!</h1><img id=\"box\" src=\"img/prizes/coins.png\"></img><img id=\"box\" src=\"img/empty/redopenbox.png\"></img></div>","key_press":null,"trial_type":"html-keyboard-response","trial_index":53,"time_elapsed":409938,"internal_node_id":"0.0-19.14-1.14"},{"rt":1005.9800000162795,"stimulus":"<p>Choose a box,</p>","button_pressed":1,"trial_type":"html-button-response","trial_index":54,"time_elapsed":410949,"internal_node_id":"0.0-19.15-0.15"},{"reward":100,"trial_type":"html-keyboard-response","trial_index":55,"time_elapsed":410950,"internal_node_id":"0.0-19.15-1.15"},{"penalty":1250,"trial_type":"html-keyboard-response","trial_index":55,"time_elapsed":410950,"internal_node_id":"0.0-19.15-1.15"},{"fined":false,"trial_type":"html-keyboard-response","trial_index":55,"time_elapsed":410950,"internal_node_id":"0.0-19.15-1.15"},{"rt":null,"stimulus":"<div style=\"background-color:#6dce98\"><h1 style=\"background-color:MediumSeaGreen\" >You earned 100 coins! Well done!</h1><div style=\"background-color:#6dce98\"><h1 style=\"background-color:MediumSeaGreen\" >Only 2200 left to go!</h1><img id=\"box\" src=\"img/prizes/coins2.png\"></img><img id=\"box\" src=\"img/empty/greenopenbox.png\"></img></div>","key_press":null,"trial_type":"html-keyboard-response","trial_index":55,"time_elapsed":413967,"internal_node_id":"0.0-19.15-1.15"},{"rt":949.2150000296533,"stimulus":"<p>Choose a box,</p>","button_pressed":0,"trial_type":"html-button-response","trial_index":56,"time_elapsed":414918,"internal_node_id":"0.0-19.16-0.16"},{"reward":100,"trial_type":"html-keyboard-response","trial_index":57,"time_elapsed":414919,"internal_node_id":"0.0-19.16-1.16"},{"penalty":250,"trial_type":"html-keyboard-response","trial_index":57,"time_elapsed":414919,"internal_node_id":"0.0-19.16-1.16"},{"fined":false,"trial_type":"html-keyboard-response","trial_index":57,"time_elapsed":414919,"internal_node_id":"0.0-19.16-1.16"},{"rt":null,"stimulus":"<div style=\"background-color:#6dce98\"><h1 style=\"background-color:MediumSeaGreen\" >You earned 100 coins! Well done!</h1><div style=\"background-color:#6dce98\"><h1 style=\"background-color:MediumSeaGreen\" >Only 2100 left to go!</h1><img id=\"box\" src=\"img/prizes/coins2.png\"></img><img id=\"box\" src=\"img/empty/blueopenbox.png\"></img></div>","key_press":null,"trial_type":"html-keyboard-response","trial_index":57,"time_elapsed":417934,"internal_node_id":"0.0-19.16-1.16"},{"rt":901.0999999591149,"stimulus":"<p>Choose a box,</p>","button_pressed":0,"trial_type":"html-button-response","trial_index":58,"time_elapsed":418836,"internal_node_id":"0.0-19.17-0.17"},{"reward":100,"trial_type":"html-keyboard-response","trial_index":59,"time_elapsed":418837,"internal_node_id":"0.0-19.17-1.17"},{"penalty":250,"trial_type":"html-keyboard-response","trial_index":59,"time_elapsed":418837,"internal_node_id":"0.0-19.17-1.17"},{"fined":false,"trial_type":"html-keyboard-response","trial_index":59,"time_elapsed":418837,"internal_node_id":"0.0-19.17-1.17"},{"rt":null,"stimulus":"<div style=\"background-color:#6dce98\"><h1 style=\"background-color:MediumSeaGreen\" >You earned 100 coins! Well done!</h1><div style=\"background-color:#6dce98\"><h1 style=\"background-color:MediumSeaGreen\" >Only 2000 left to go!</h1><img id=\"box\" src=\"img/prizes/coins2.png\"></img><img id=\"box\" src=\"img/empty/blueopenbox.png\"></img></div>","key_press":null,"trial_type":"html-keyboard-response","trial_index":59,"time_elapsed":421853,"internal_node_id":"0.0-19.17-1.17"},{"rt":871.1800000164658,"stimulus":"<p>Choose a box,</p>","button_pressed":0,"trial_type":"html-button-response","trial_index":60,"time_elapsed":422727,"internal_node_id":"0.0-19.18-0.18"},{"reward":100,"trial_type":"html-keyboard-response","trial_index":61,"time_elapsed":422728,"internal_node_id":"0.0-19.18-1.18"},{"penalty":250,"trial_type":"html-keyboard-response","trial_index":61,"time_elapsed":422728,"internal_node_id":"0.0-19.18-1.18"},{"fined":true,"trial_type":"html-keyboard-response","trial_index":61,"time_elapsed":422728,"internal_node_id":"0.0-19.18-1.18"},{"rt":null,"stimulus":"<div style=\"background-color:#ff7157\"><h1 style=\"background-color:MediumSeaGreen\">You earned 100 coins</h1><h1 h1 style=\"background-color:Tomato\">but you have recieved a fine of 250 coins</h1><h1 style=\"background-color:Tomato\">Remember, you need to keep going until you have 3000 coins!</h1><img id=\"box\" src=\"img/prizes/250.png\"></img><img id=\"box\" src=\"img/sad/blueopenboxsadthumb.png\"></img></div>","key_press":null,"trial_type":"html-keyboard-response","trial_index":61,"time_elapsed":425730,"internal_node_id":"0.0-19.18-1.18"},{"rt":1815.5549999792129,"stimulus":"<p>Choose a box,</p>","button_pressed":2,"trial_type":"html-button-response","trial_index":62,"time_elapsed":427549,"internal_node_id":"0.0-19.19-0.19"},{"reward":50,"trial_type":"html-keyboard-response","trial_index":63,"time_elapsed":427549,"internal_node_id":"0.0-19.19-1.19"},{"penalty":50,"trial_type":"html-keyboard-response","trial_index":63,"time_elapsed":427549,"internal_node_id":"0.0-19.19-1.19"},{"fined":false,"trial_type":"html-keyboard-response","trial_index":63,"time_elapsed":427550,"internal_node_id":"0.0-19.19-1.19"},{"rt":null,"stimulus":"<div style=\"background-color:#6dce98\"><h1 style=\"background-color:MediumSeaGreen\" >You earned 50 coins! Well done!</h1><div style=\"background-color:#6dce98\"><h1 style=\"background-color:MediumSeaGreen\" >Only 2100 left to go!</h1><img id=\"box\" src=\"img/prizes/coins.png\"></img><img id=\"box\" src=\"img/empty/purpleopenbox.png\"></img></div>","key_press":null,"trial_type":"html-keyboard-response","trial_index":63,"time_elapsed":430552,"internal_node_id":"0.0-19.19-1.19"},{"rt":785.6400000164285,"stimulus":"<p>Choose a box,</p>","button_pressed":3,"trial_type":"html-button-response","trial_index":64,"time_elapsed":431341,"internal_node_id":"0.0-19.20-0.20"},{"reward":50,"trial_type":"html-keyboard-response","trial_index":65,"time_elapsed":431341,"internal_node_id":"0.0-19.20-1.20"},{"penalty":250,"trial_type":"html-keyboard-response","trial_index":65,"time_elapsed":431341,"internal_node_id":"0.0-19.20-1.20"},{"fined":true,"trial_type":"html-keyboard-response","trial_index":65,"time_elapsed":431341,"internal_node_id":"0.0-19.20-1.20"},{"rt":null,"stimulus":"<div style=\"background-color:#ff7157\"><h1 style=\"background-color:MediumSeaGreen\">You earned 50 coins</h1><h1 h1 style=\"background-color:Tomato\">but you have recieved a fine of 250 coins</h1><h1 style=\"background-color:Tomato\">Remember, you need to keep going until you have 3000 coins!</h1><img id=\"box\" src=\"img/prizes/250.png\"></img><img id=\"box\" src=\"img/sad/redopenboxsadthumb.png\"></img></div>","key_press":null,"trial_type":"html-keyboard-response","trial_index":65,"time_elapsed":434344,"internal_node_id":"0.0-19.20-1.20"},{"rt":1211.0600000014529,"stimulus":"<p>Choose a box,</p>","button_pressed":3,"trial_type":"html-button-response","trial_index":66,"time_elapsed":435558,"internal_node_id":"0.0-19.21-0.21"},{"reward":50,"trial_type":"html-keyboard-response","trial_index":67,"time_elapsed":435558,"internal_node_id":"0.0-19.21-1.21"},{"penalty":250,"trial_type":"html-keyboard-response","trial_index":67,"time_elapsed":435558,"internal_node_id":"0.0-19.21-1.21"},{"fined":false,"trial_type":"html-keyboard-response","trial_index":67,"time_elapsed":435558,"internal_node_id":"0.0-19.21-1.21"},{"rt":null,"stimulus":"<div style=\"background-color:#6dce98\"><h1 style=\"background-color:MediumSeaGreen\" >You earned 50 coins! Well done!</h1><div style=\"background-color:#6dce98\"><h1 style=\"background-color:MediumSeaGreen\" >Only 2250 left to go!</h1><img id=\"box\" src=\"img/prizes/coins.png\"></img><img id=\"box\" src=\"img/empty/redopenbox.png\"></img></div>","key_press":null,"trial_type":"html-keyboard-response","trial_index":67,"time_elapsed":438562,"internal_node_id":"0.0-19.21-1.21"},{"rt":1040.2950000134297,"stimulus":"<p>Choose a box,</p>","button_pressed":1,"trial_type":"html-button-response","trial_index":68,"time_elapsed":439604,"internal_node_id":"0.0-19.22-0.22"},{"reward":100,"trial_type":"html-keyboard-response","trial_index":69,"time_elapsed":439604,"internal_node_id":"0.0-19.22-1.22"},{"penalty":1250,"trial_type":"html-keyboard-response","trial_index":69,"time_elapsed":439604,"internal_node_id":"0.0-19.22-1.22"},{"fined":false,"trial_type":"html-keyboard-response","trial_index":69,"time_elapsed":439604,"internal_node_id":"0.0-19.22-1.22"},{"rt":null,"stimulus":"<div style=\"background-color:#6dce98\"><h1 style=\"background-color:MediumSeaGreen\" >You earned 100 coins! Well done!</h1><div style=\"background-color:#6dce98\"><h1 style=\"background-color:MediumSeaGreen\" >Only 2150 left to go!</h1><img id=\"box\" src=\"img/prizes/coins2.png\"></img><img id=\"box\" src=\"img/empty/greenopenbox.png\"></img></div>","key_press":null,"trial_type":"html-keyboard-response","trial_index":69,"time_elapsed":442605,"internal_node_id":"0.0-19.22-1.22"},{"rt":1080.9449999942444,"stimulus":"<p>Choose a box,</p>","button_pressed":1,"trial_type":"html-button-response","trial_index":70,"time_elapsed":443688,"internal_node_id":"0.0-19.23-0.23"},{"reward":100,"trial_type":"html-keyboard-response","trial_index":71,"time_elapsed":443688,"internal_node_id":"0.0-19.23-1.23"},{"penalty":1250,"trial_type":"html-keyboard-response","trial_index":71,"time_elapsed":443688,"internal_node_id":"0.0-19.23-1.23"},{"fined":false,"trial_type":"html-keyboard-response","trial_index":71,"time_elapsed":443688,"internal_node_id":"0.0-19.23-1.23"},{"rt":null,"stimulus":"<div style=\"background-color:#6dce98\"><h1 style=\"background-color:MediumSeaGreen\" >You earned 100 coins! Well done!</h1><div style=\"background-color:#6dce98\"><h1 style=\"background-color:MediumSeaGreen\" >Only 2050 left to go!</h1><img id=\"box\" src=\"img/prizes/coins2.png\"></img><img id=\"box\" src=\"img/empty/greenopenbox.png\"></img></div>","key_press":null,"trial_type":"html-keyboard-response","trial_index":71,"time_elapsed":446690,"internal_node_id":"0.0-19.23-1.23"},{"rt":1052.2699999855831,"stimulus":"<p>Choose a box,</p>","button_pressed":0,"trial_type":"html-button-response","trial_index":72,"time_elapsed":447745,"internal_node_id":"0.0-19.24-0.24"},{"reward":100,"trial_type":"html-keyboard-response","trial_index":73,"time_elapsed":447746,"internal_node_id":"0.0-19.24-1.24"},{"penalty":250,"trial_type":"html-keyboard-response","trial_index":73,"time_elapsed":447746,"internal_node_id":"0.0-19.24-1.24"},{"fined":false,"trial_type":"html-keyboard-response","trial_index":73,"time_elapsed":447746,"internal_node_id":"0.0-19.24-1.24"},{"rt":null,"stimulus":"<div style=\"background-color:#6dce98\"><h1 style=\"background-color:MediumSeaGreen\" >You earned 100 coins! Well done!</h1><div style=\"background-color:#6dce98\"><h1 style=\"background-color:MediumSeaGreen\" >Only 1950 left to go!</h1><img id=\"box\" src=\"img/prizes/coins2.png\"></img><img id=\"box\" src=\"img/empty/blueopenbox.png\"></img></div>","key_press":null,"trial_type":"html-keyboard-response","trial_index":73,"time_elapsed":450761,"internal_node_id":"0.0-19.24-1.24"},{"rt":1014.9949999758974,"stimulus":"<p>Choose a box,</p>","button_pressed":0,"trial_type":"html-button-response","trial_index":74,"time_elapsed":451778,"internal_node_id":"0.0-19.25-0.25"},{"reward":100,"trial_type":"html-keyboard-response","trial_index":75,"time_elapsed":451778,"internal_node_id":"0.0-19.25-1.25"},{"penalty":250,"trial_type":"html-keyboard-response","trial_index":75,"time_elapsed":451778,"internal_node_id":"0.0-19.25-1.25"},{"fined":true,"trial_type":"html-keyboard-response","trial_index":75,"time_elapsed":451778,"internal_node_id":"0.0-19.25-1.25"},{"rt":null,"stimulus":"<div style=\"background-color:#ff7157\"><h1 style=\"background-color:MediumSeaGreen\">You earned 100 coins</h1><h1 h1 style=\"background-color:Tomato\">but you have recieved a fine of 250 coins</h1><h1 style=\"background-color:Tomato\">Remember, you need to keep going until you have 3000 coins!</h1><img id=\"box\" src=\"img/prizes/250.png\"></img><img id=\"box\" src=\"img/sad/blueopenboxsadthumb.png\"></img></div>","key_press":null,"trial_type":"html-keyboard-response","trial_index":75,"time_elapsed":454788,"internal_node_id":"0.0-19.25-1.25"},{"rt":12937.969999969937,"stimulus":"<p>Choose a box,</p>","button_pressed":3,"trial_type":"html-button-response","trial_index":76,"time_elapsed":467729,"internal_node_id":"0.0-19.26-0.26"},{"reward":50,"trial_type":"html-keyboard-response","trial_index":77,"time_elapsed":467730,"internal_node_id":"0.0-19.26-1.26"},{"penalty":250,"trial_type":"html-keyboard-response","trial_index":77,"time_elapsed":467730,"internal_node_id":"0.0-19.26-1.26"},{"fined":false,"trial_type":"html-keyboard-response","trial_index":77,"time_elapsed":467730,"internal_node_id":"0.0-19.26-1.26"},{"rt":null,"stimulus":"<div style=\"background-color:#6dce98\"><h1 style=\"background-color:MediumSeaGreen\" >You earned 50 coins! Well done!</h1><div style=\"background-color:#6dce98\"><h1 style=\"background-color:MediumSeaGreen\" >Only 2050 left to go!</h1><img id=\"box\" src=\"img/prizes/coins.png\"></img><img id=\"box\" src=\"img/empty/redopenbox.png\"></img></div>","key_press":null,"trial_type":"html-keyboard-response","trial_index":77,"time_elapsed":470732,"internal_node_id":"0.0-19.26-1.26"},{"rt":4059.2450000112876,"stimulus":"<p>Choose a box,</p>","button_pressed":3,"trial_type":"html-button-response","trial_index":78,"time_elapsed":474794,"internal_node_id":"0.0-19.27-0.27"},{"reward":50,"trial_type":"html-keyboard-response","trial_index":79,"time_elapsed":474795,"internal_node_id":"0.0-19.27-1.27"},{"penalty":250,"trial_type":"html-keyboard-response","trial_index":79,"time_elapsed":474795,"internal_node_id":"0.0-19.27-1.27"},{"fined":false,"trial_type":"html-keyboard-response","trial_index":79,"time_elapsed":474795,"internal_node_id":"0.0-19.27-1.27"},{"rt":null,"stimulus":"<div style=\"background-color:#6dce98\"><h1 style=\"background-color:MediumSeaGreen\" >You earned 50 coins! Well done!</h1><div style=\"background-color:#6dce98\"><h1 style=\"background-color:MediumSeaGreen\" >Only 2000 left to go!</h1><img id=\"box\" src=\"img/prizes/coins.png\"></img><img id=\"box\" src=\"img/empty/redopenbox.png\"></img></div>","key_press":null,"trial_type":"html-keyboard-response","trial_index":79,"time_elapsed":477811,"internal_node_id":"0.0-19.27-1.27"},{"rt":1321.0550000076182,"stimulus":"<p>Choose a box,</p>","button_pressed":2,"trial_type":"html-button-response","trial_index":80,"time_elapsed":479135,"internal_node_id":"0.0-19.28-0.28"},{"reward":50,"trial_type":"html-keyboard-response","trial_index":81,"time_elapsed":479136,"internal_node_id":"0.0-19.28-1.28"},{"penalty":50,"trial_type":"html-keyboard-response","trial_index":81,"time_elapsed":479136,"internal_node_id":"0.0-19.28-1.28"},{"fined":false,"trial_type":"html-keyboard-response","trial_index":81,"time_elapsed":479136,"internal_node_id":"0.0-19.28-1.28"},{"rt":null,"stimulus":"<div style=\"background-color:#6dce98\"><h1 style=\"background-color:MediumSeaGreen\" >You earned 50 coins! Well done!</h1><div style=\"background-color:#6dce98\"><h1 style=\"background-color:MediumSeaGreen\" >Only 1950 left to go!</h1><img id=\"box\" src=\"img/prizes/coins.png\"></img><img id=\"box\" src=\"img/empty/purpleopenbox.png\"></img></div>","key_press":null,"trial_type":"html-keyboard-response","trial_index":81,"time_elapsed":482144,"internal_node_id":"0.0-19.28-1.28"},{"rt":1531.1900000087917,"stimulus":"<p>Choose a box,</p>","button_pressed":2,"trial_type":"html-button-response","trial_index":82,"time_elapsed":483678,"internal_node_id":"0.0-19.29-0.29"},{"reward":50,"trial_type":"html-keyboard-response","trial_index":83,"time_elapsed":483679,"internal_node_id":"0.0-19.29-1.29"},{"penalty":50,"trial_type":"html-keyboard-response","trial_index":83,"time_elapsed":483679,"internal_node_id":"0.0-19.29-1.29"},{"fined":true,"trial_type":"html-keyboard-response","trial_index":83,"time_elapsed":483679,"internal_node_id":"0.0-19.29-1.29"},{"rt":null,"stimulus":"<div style=\"background-color:#ff7157\"><h1 style=\"background-color:MediumSeaGreen\">You earned 50 coins</h1><h1 h1 style=\"background-color:Tomato\">but you have recieved a fine of 50 coins</h1><h1 style=\"background-color:Tomato\">Remember, you need to keep going until you have 3000 coins!</h1><img id=\"box\" src=\"img/prizes/50.png\"></img><img id=\"box\" src=\"img/sad/purpleopenboxsadthumb.png\"></img></div>","key_press":null,"trial_type":"html-keyboard-response","trial_index":83,"time_elapsed":486692,"internal_node_id":"0.0-19.29-1.29"},{"rt":1246.6300000087358,"stimulus":"<p>Choose a box,</p>","button_pressed":2,"trial_type":"html-button-response","trial_index":84,"time_elapsed":487941,"internal_node_id":"0.0-19.30-0.30"},{"reward":50,"trial_type":"html-keyboard-response","trial_index":85,"time_elapsed":487942,"internal_node_id":"0.0-19.30-1.30"},{"penalty":50,"trial_type":"html-keyboard-response","trial_index":85,"time_elapsed":487942,"internal_node_id":"0.0-19.30-1.30"},{"fined":false,"trial_type":"html-keyboard-response","trial_index":85,"time_elapsed":487942,"internal_node_id":"0.0-19.30-1.30"},{"rt":null,"stimulus":"<div style=\"background-color:#6dce98\"><h1 style=\"background-color:MediumSeaGreen\" >You earned 50 coins! Well done!</h1><div style=\"background-color:#6dce98\"><h1 style=\"background-color:MediumSeaGreen\" >Only 1900 left to go!</h1><img id=\"box\" src=\"img/prizes/coins.png\"></img><img id=\"box\" src=\"img/empty/purpleopenbox.png\"></img></div>","key_press":null,"trial_type":"html-keyboard-response","trial_index":85,"time_elapsed":490948,"internal_node_id":"0.0-19.30-1.30"},{"rt":1013.63499998115,"stimulus":"<p>Choose a box,</p>","button_pressed":2,"trial_type":"html-button-response","trial_index":86,"time_elapsed":491964,"internal_node_id":"0.0-19.31-0.31"},{"reward":50,"trial_type":"html-keyboard-response","trial_index":87,"time_elapsed":491965,"internal_node_id":"0.0-19.31-1.31"},{"penalty":50,"trial_type":"html-keyboard-response","trial_index":87,"time_elapsed":491965,"internal_node_id":"0.0-19.31-1.31"},{"fined":false,"trial_type":"html-keyboard-response","trial_index":87,"time_elapsed":491965,"internal_node_id":"0.0-19.31-1.31"},{"rt":null,"stimulus":"<div style=\"background-color:#6dce98\"><h1 style=\"background-color:MediumSeaGreen\" >You earned 50 coins! Well done!</h1><div style=\"background-color:#6dce98\"><h1 style=\"background-color:MediumSeaGreen\" >Only 1850 left to go!</h1><img id=\"box\" src=\"img/prizes/coins.png\"></img><img id=\"box\" src=\"img/empty/purpleopenbox.png\"></img></div>","key_press":null,"trial_type":"html-keyboard-response","trial_index":87,"time_elapsed":494967,"internal_node_id":"0.0-19.31-1.31"},{"rt":936.9700000388548,"stimulus":"<p>Choose a box,</p>","button_pressed":2,"trial_type":"html-button-response","trial_index":88,"time_elapsed":495907,"internal_node_id":"0.0-19.32-0.32"},{"reward":50,"trial_type":"html-keyboard-response","trial_index":89,"time_elapsed":495907,"internal_node_id":"0.0-19.32-1.32"},{"penalty":50,"trial_type":"html-keyboard-response","trial_index":89,"time_elapsed":495907,"internal_node_id":"0.0-19.32-1.32"},{"fined":true,"trial_type":"html-keyboard-response","trial_index":89,"time_elapsed":495907,"internal_node_id":"0.0-19.32-1.32"},{"rt":null,"stimulus":"<div style=\"background-color:#ff7157\"><h1 style=\"background-color:MediumSeaGreen\">You earned 50 coins</h1><h1 h1 style=\"background-color:Tomato\">but you have recieved a fine of 50 coins</h1><h1 style=\"background-color:Tomato\">Remember, you need to keep going until you have 3000 coins!</h1><img id=\"box\" src=\"img/prizes/50.png\"></img><img id=\"box\" src=\"img/sad/purpleopenboxsadthumb.png\"></img></div>","key_press":null,"trial_type":"html-keyboard-response","trial_index":89,"time_elapsed":498914,"internal_node_id":"0.0-19.32-1.32"},{"rt":1086.8250000057742,"stimulus":"<p>Choose a box,</p>","button_pressed":2,"trial_type":"html-button-response","trial_index":90,"time_elapsed":500006,"internal_node_id":"0.0-19.33-0.33"},{"reward":50,"trial_type":"html-keyboard-response","trial_index":91,"time_elapsed":500006,"internal_node_id":"0.0-19.33-1.33"},{"penalty":50,"trial_type":"html-keyboard-response","trial_index":91,"time_elapsed":500006,"internal_node_id":"0.0-19.33-1.33"},{"fined":false,"trial_type":"html-keyboard-response","trial_index":91,"time_elapsed":500006,"internal_node_id":"0.0-19.33-1.33"},{"rt":null,"stimulus":"<div style=\"background-color:#6dce98\"><h1 style=\"background-color:MediumSeaGreen\" >You earned 50 coins! Well done!</h1><div style=\"background-color:#6dce98\"><h1 style=\"background-color:MediumSeaGreen\" >Only 1800 left to go!</h1><img id=\"box\" src=\"img/prizes/coins.png\"></img><img id=\"box\" src=\"img/empty/purpleopenbox.png\"></img></div>","key_press":null,"trial_type":"html-keyboard-response","trial_index":91,"time_elapsed":503021,"internal_node_id":"0.0-19.33-1.33"},{"rt":966.8799999635667,"stimulus":"<p>Choose a box,</p>","button_pressed":2,"trial_type":"html-button-response","trial_index":92,"time_elapsed":503990,"internal_node_id":"0.0-19.34-0.34"},{"reward":50,"trial_type":"html-keyboard-response","trial_index":93,"time_elapsed":503991,"internal_node_id":"0.0-19.34-1.34"},{"penalty":50,"trial_type":"html-keyboard-response","trial_index":93,"time_elapsed":503991,"internal_node_id":"0.0-19.34-1.34"},{"fined":false,"trial_type":"html-keyboard-response","trial_index":93,"time_elapsed":503991,"internal_node_id":"0.0-19.34-1.34"},{"rt":null,"stimulus":"<div style=\"background-color:#6dce98\"><h1 style=\"background-color:MediumSeaGreen\" >You earned 50 coins! Well done!</h1><div style=\"background-color:#6dce98\"><h1 style=\"background-color:MediumSeaGreen\" >Only 1750 left to go!</h1><img id=\"box\" src=\"img/prizes/coins.png\"></img><img id=\"box\" src=\"img/empty/purpleopenbox.png\"></img></div>","key_press":null,"trial_type":"html-keyboard-response","trial_index":93,"time_elapsed":507000,"internal_node_id":"0.0-19.34-1.34"},{"rt":1104.7249999828637,"stimulus":"<p>Choose a box,</p>","button_pressed":1,"trial_type":"html-button-response","trial_index":94,"time_elapsed":508107,"internal_node_id":"0.0-19.35-0.35"},{"reward":100,"trial_type":"html-keyboard-response","trial_index":95,"time_elapsed":508108,"internal_node_id":"0.0-19.35-1.35"},{"penalty":1250,"trial_type":"html-keyboard-response","trial_index":95,"time_elapsed":508108,"internal_node_id":"0.0-19.35-1.35"},{"fined":false,"trial_type":"html-keyboard-response","trial_index":95,"time_elapsed":508108,"internal_node_id":"0.0-19.35-1.35"},{"rt":null,"stimulus":"<div style=\"background-color:#6dce98\"><h1 style=\"background-color:MediumSeaGreen\" >You earned 100 coins! Well done!</h1><div style=\"background-color:#6dce98\"><h1 style=\"background-color:MediumSeaGreen\" >Only 1650 left to go!</h1><img id=\"box\" src=\"img/prizes/coins2.png\"></img><img id=\"box\" src=\"img/empty/greenopenbox.png\"></img></div>","key_press":null,"trial_type":"html-keyboard-response","trial_index":95,"time_elapsed":511111,"internal_node_id":"0.0-19.35-1.35"},{"rt":977.9649999691173,"stimulus":"<p>Choose a box,</p>","button_pressed":0,"trial_type":"html-button-response","trial_index":96,"time_elapsed":512092,"internal_node_id":"0.0-19.36-0.36"},{"reward":100,"trial_type":"html-keyboard-response","trial_index":97,"time_elapsed":512093,"internal_node_id":"0.0-19.36-1.36"},{"penalty":250,"trial_type":"html-keyboard-response","trial_index":97,"time_elapsed":512093,"internal_node_id":"0.0-19.36-1.36"},{"fined":false,"trial_type":"html-keyboard-response","trial_index":97,"time_elapsed":512093,"internal_node_id":"0.0-19.36-1.36"},{"rt":null,"stimulus":"<div style=\"background-color:#6dce98\"><h1 style=\"background-color:MediumSeaGreen\" >You earned 100 coins! Well done!</h1><div style=\"background-color:#6dce98\"><h1 style=\"background-color:MediumSeaGreen\" >Only 1550 left to go!</h1><img id=\"box\" src=\"img/prizes/coins2.png\"></img><img id=\"box\" src=\"img/empty/blueopenbox.png\"></img></div>","key_press":null,"trial_type":"html-keyboard-response","trial_index":97,"time_elapsed":515101,"internal_node_id":"0.0-19.36-1.36"},{"rt":1585.1549999788404,"stimulus":"<p>Choose a box,</p>","button_pressed":0,"trial_type":"html-button-response","trial_index":98,"time_elapsed":516689,"internal_node_id":"0.0-19.37-0.37"},{"reward":100,"trial_type":"html-keyboard-response","trial_index":99,"time_elapsed":516690,"internal_node_id":"0.0-19.37-1.37"},{"penalty":250,"trial_type":"html-keyboard-response","trial_index":99,"time_elapsed":516690,"internal_node_id":"0.0-19.37-1.37"},{"fined":false,"trial_type":"html-keyboard-response","trial_index":99,"time_elapsed":516690,"internal_node_id":"0.0-19.37-1.37"},{"rt":null,"stimulus":"<div style=\"background-color:#6dce98\"><h1 style=\"background-color:MediumSeaGreen\" >You earned 100 coins! Well done!</h1><div style=\"background-color:#6dce98\"><h1 style=\"background-color:MediumSeaGreen\" >Only 1450 left to go!</h1><img id=\"box\" src=\"img/prizes/coins2.png\"></img><img id=\"box\" src=\"img/empty/blueopenbox.png\"></img></div>","key_press":null,"trial_type":"html-keyboard-response","trial_index":99,"time_elapsed":519702,"internal_node_id":"0.0-19.37-1.37"},{"rt":1266.315000015311,"stimulus":"<p>Choose a box,</p>","button_pressed":3,"trial_type":"html-button-response","trial_index":100,"time_elapsed":520973,"internal_node_id":"0.0-19.38-0.38"},{"reward":50,"trial_type":"html-keyboard-response","trial_index":101,"time_elapsed":520974,"internal_node_id":"0.0-19.38-1.38"},{"penalty":250,"trial_type":"html-keyboard-response","trial_index":101,"time_elapsed":520974,"internal_node_id":"0.0-19.38-1.38"},{"fined":false,"trial_type":"html-keyboard-response","trial_index":101,"time_elapsed":520974,"internal_node_id":"0.0-19.38-1.38"},{"rt":null,"stimulus":"<div style=\"background-color:#6dce98\"><h1 style=\"background-color:MediumSeaGreen\" >You earned 50 coins! Well done!</h1><div style=\"background-color:#6dce98\"><h1 style=\"background-color:MediumSeaGreen\" >Only 1400 left to go!</h1><img id=\"box\" src=\"img/prizes/coins.png\"></img><img id=\"box\" src=\"img/empty/redopenbox.png\"></img></div>","key_press":null,"trial_type":"html-keyboard-response","trial_index":101,"time_elapsed":523983,"internal_node_id":"0.0-19.38-1.38"},{"rt":995.1850000070408,"stimulus":"<p>Choose a box,</p>","button_pressed":3,"trial_type":"html-button-response","trial_index":102,"time_elapsed":524979,"internal_node_id":"0.0-19.39-0.39"},{"reward":50,"trial_type":"html-keyboard-response","trial_index":103,"time_elapsed":524980,"internal_node_id":"0.0-19.39-1.39"},{"penalty":250,"trial_type":"html-keyboard-response","trial_index":103,"time_elapsed":524980,"internal_node_id":"0.0-19.39-1.39"},{"fined":false,"trial_type":"html-keyboard-response","trial_index":103,"time_elapsed":524980,"internal_node_id":"0.0-19.39-1.39"},{"rt":null,"stimulus":"<div style=\"background-color:#6dce98\"><h1 style=\"background-color:MediumSeaGreen\" >You earned 50 coins! Well done!</h1><div style=\"background-color:#6dce98\"><h1 style=\"background-color:MediumSeaGreen\" >Only 1350 left to go!</h1><img id=\"box\" src=\"img/prizes/coins.png\"></img><img id=\"box\" src=\"img/empty/redopenbox.png\"></img></div>","key_press":null,"trial_type":"html-keyboard-response","trial_index":103,"time_elapsed":527987,"internal_node_id":"0.0-19.39-1.39"},{"rt":1054.7699999879114,"stimulus":"<p>Choose a box,</p>","button_pressed":1,"trial_type":"html-button-response","trial_index":104,"time_elapsed":529044,"internal_node_id":"0.0-19.40-0.40"},{"reward":100,"trial_type":"html-keyboard-response","trial_index":105,"time_elapsed":529045,"internal_node_id":"0.0-19.40-1.40"},{"penalty":1250,"trial_type":"html-keyboard-response","trial_index":105,"time_elapsed":529045,"internal_node_id":"0.0-19.40-1.40"},{"fined":false,"trial_type":"html-keyboard-response","trial_index":105,"time_elapsed":529045,"internal_node_id":"0.0-19.40-1.40"},{"rt":null,"stimulus":"<div style=\"background-color:#6dce98\"><h1 style=\"background-color:MediumSeaGreen\" >You earned 100 coins! Well done!</h1><div style=\"background-color:#6dce98\"><h1 style=\"background-color:MediumSeaGreen\" >Only 1250 left to go!</h1><img id=\"box\" src=\"img/prizes/coins2.png\"></img><img id=\"box\" src=\"img/empty/greenopenbox.png\"></img></div>","key_press":null,"trial_type":"html-keyboard-response","trial_index":105,"time_elapsed":532055,"internal_node_id":"0.0-19.40-1.40"},{"rt":1079.9049999914132,"stimulus":"<p>Choose a box,</p>","button_pressed":2,"trial_type":"html-button-response","trial_index":106,"time_elapsed":533137,"internal_node_id":"0.0-19.41-0.41"},{"reward":50,"trial_type":"html-keyboard-response","trial_index":107,"time_elapsed":533138,"internal_node_id":"0.0-19.41-1.41"},{"penalty":50,"trial_type":"html-keyboard-response","trial_index":107,"time_elapsed":533138,"internal_node_id":"0.0-19.41-1.41"},{"fined":true,"trial_type":"html-keyboard-response","trial_index":107,"time_elapsed":533138,"internal_node_id":"0.0-19.41-1.41"},{"rt":null,"stimulus":"<div style=\"background-color:#ff7157\"><h1 style=\"background-color:MediumSeaGreen\">You earned 50 coins</h1><h1 h1 style=\"background-color:Tomato\">but you have recieved a fine of 50 coins</h1><h1 style=\"background-color:Tomato\">Remember, you need to keep going until you have 3000 coins!</h1><img id=\"box\" src=\"img/prizes/50.png\"></img><img id=\"box\" src=\"img/sad/purpleopenboxsadthumb.png\"></img></div>","key_press":null,"trial_type":"html-keyboard-response","trial_index":107,"time_elapsed":536154,"internal_node_id":"0.0-19.41-1.41"},{"rt":979.0649999631569,"stimulus":"<p>Choose a box,</p>","button_pressed":3,"trial_type":"html-button-response","trial_index":108,"time_elapsed":537136,"internal_node_id":"0.0-19.42-0.42"},{"reward":50,"trial_type":"html-keyboard-response","trial_index":109,"time_elapsed":537137,"internal_node_id":"0.0-19.42-1.42"},{"penalty":250,"trial_type":"html-keyboard-response","trial_index":109,"time_elapsed":537137,"internal_node_id":"0.0-19.42-1.42"},{"fined":false,"trial_type":"html-keyboard-response","trial_index":109,"time_elapsed":537137,"internal_node_id":"0.0-19.42-1.42"},{"rt":null,"stimulus":"<div style=\"background-color:#6dce98\"><h1 style=\"background-color:MediumSeaGreen\" >You earned 50 coins! Well done!</h1><div style=\"background-color:#6dce98\"><h1 style=\"background-color:MediumSeaGreen\" >Only 1200 left to go!</h1><img id=\"box\" src=\"img/prizes/coins.png\"></img><img id=\"box\" src=\"img/empty/redopenbox.png\"></img></div>","key_press":null,"trial_type":"html-keyboard-response","trial_index":109,"time_elapsed":540148,"internal_node_id":"0.0-19.42-1.42"},{"rt":3091.660000034608,"stimulus":"<p>Choose a box,</p>","button_pressed":0,"trial_type":"html-button-response","trial_index":110,"time_elapsed":543242,"internal_node_id":"0.0-19.43-0.43"},{"reward":100,"trial_type":"html-keyboard-response","trial_index":111,"time_elapsed":543243,"internal_node_id":"0.0-19.43-1.43"},{"penalty":250,"trial_type":"html-keyboard-response","trial_index":111,"time_elapsed":543243,"internal_node_id":"0.0-19.43-1.43"},{"fined":true,"trial_type":"html-keyboard-response","trial_index":111,"time_elapsed":543243,"internal_node_id":"0.0-19.43-1.43"},{"rt":null,"stimulus":"<div style=\"background-color:#ff7157\"><h1 style=\"background-color:MediumSeaGreen\">You earned 100 coins</h1><h1 h1 style=\"background-color:Tomato\">but you have recieved a fine of 250 coins</h1><h1 style=\"background-color:Tomato\">Remember, you need to keep going until you have 3000 coins!</h1><img id=\"box\" src=\"img/prizes/250.png\"></img><img id=\"box\" src=\"img/sad/blueopenboxsadthumb.png\"></img></div>","key_press":null,"trial_type":"html-keyboard-response","trial_index":111,"time_elapsed":546252,"internal_node_id":"0.0-19.43-1.43"},{"rt":927.1050000097603,"stimulus":"<p>Choose a box,</p>","button_pressed":0,"trial_type":"html-button-response","trial_index":112,"time_elapsed":547182,"internal_node_id":"0.0-19.44-0.44"},{"reward":100,"trial_type":"html-keyboard-response","trial_index":113,"time_elapsed":547184,"internal_node_id":"0.0-19.44-1.44"},{"penalty":250,"trial_type":"html-keyboard-response","trial_index":113,"time_elapsed":547184,"internal_node_id":"0.0-19.44-1.44"},{"fined":false,"trial_type":"html-keyboard-response","trial_index":113,"time_elapsed":547184,"internal_node_id":"0.0-19.44-1.44"},{"rt":null,"stimulus":"<div style=\"background-color:#6dce98\"><h1 style=\"background-color:MediumSeaGreen\" >You earned 100 coins! Well done!</h1><div style=\"background-color:#6dce98\"><h1 style=\"background-color:MediumSeaGreen\" >Only 1250 left to go!</h1><img id=\"box\" src=\"img/prizes/coins2.png\"></img><img id=\"box\" src=\"img/empty/blueopenbox.png\"></img></div>","key_press":null,"trial_type":"html-keyboard-response","trial_index":113,"time_elapsed":550195,"internal_node_id":"0.0-19.44-1.44"},{"rt":1759.3449999694712,"stimulus":"<p>Choose a box,</p>","button_pressed":0,"trial_type":"html-button-response","trial_index":114,"time_elapsed":551957,"internal_node_id":"0.0-19.45-0.45"},{"reward":100,"trial_type":"html-keyboard-response","trial_index":115,"time_elapsed":551957,"internal_node_id":"0.0-19.45-1.45"},{"penalty":250,"trial_type":"html-keyboard-response","trial_index":115,"time_elapsed":551957,"internal_node_id":"0.0-19.45-1.45"},{"fined":true,"trial_type":"html-keyboard-response","trial_index":115,"time_elapsed":551958,"internal_node_id":"0.0-19.45-1.45"},{"rt":null,"stimulus":"<div style=\"background-color:#ff7157\"><h1 style=\"background-color:MediumSeaGreen\">You earned 100 coins</h1><h1 h1 style=\"background-color:Tomato\">but you have recieved a fine of 250 coins</h1><h1 style=\"background-color:Tomato\">Remember, you need to keep going until you have 3000 coins!</h1><img id=\"box\" src=\"img/prizes/250.png\"></img><img id=\"box\" src=\"img/sad/blueopenboxsadthumb.png\"></img></div>","key_press":null,"trial_type":"html-keyboard-response","trial_index":115,"time_elapsed":554960,"internal_node_id":"0.0-19.45-1.45"},{"rt":966.855000006035,"stimulus":"<p>Choose a box,</p>","button_pressed":1,"trial_type":"html-button-response","trial_index":116,"time_elapsed":555930,"internal_node_id":"0.0-19.46-0.46"},{"reward":100,"trial_type":"html-keyboard-response","trial_index":117,"time_elapsed":555930,"internal_node_id":"0.0-19.46-1.46"},{"penalty":1250,"trial_type":"html-keyboard-response","trial_index":117,"time_elapsed":555930,"internal_node_id":"0.0-19.46-1.46"},{"fined":false,"trial_type":"html-keyboard-response","trial_index":117,"time_elapsed":555930,"internal_node_id":"0.0-19.46-1.46"},{"rt":null,"stimulus":"<div style=\"background-color:#6dce98\"><h1 style=\"background-color:MediumSeaGreen\" >You earned 100 coins! Well done!</h1><div style=\"background-color:#6dce98\"><h1 style=\"background-color:MediumSeaGreen\" >Only 1300 left to go!</h1><img id=\"box\" src=\"img/prizes/coins2.png\"></img><img id=\"box\" src=\"img/empty/greenopenbox.png\"></img></div>","key_press":null,"trial_type":"html-keyboard-response","trial_index":117,"time_elapsed":558933,"internal_node_id":"0.0-19.46-1.46"},{"rt":965.555000002496,"stimulus":"<p>Choose a box,</p>","button_pressed":2,"trial_type":"html-button-response","trial_index":118,"time_elapsed":559901,"internal_node_id":"0.0-19.47-0.47"},{"reward":50,"trial_type":"html-keyboard-response","trial_index":119,"time_elapsed":559901,"internal_node_id":"0.0-19.47-1.47"},{"penalty":50,"trial_type":"html-keyboard-response","trial_index":119,"time_elapsed":559901,"internal_node_id":"0.0-19.47-1.47"},{"fined":true,"trial_type":"html-keyboard-response","trial_index":119,"time_elapsed":559901,"internal_node_id":"0.0-19.47-1.47"},{"rt":null,"stimulus":"<div style=\"background-color:#ff7157\"><h1 style=\"background-color:MediumSeaGreen\">You earned 50 coins</h1><h1 h1 style=\"background-color:Tomato\">but you have recieved a fine of 50 coins</h1><h1 style=\"background-color:Tomato\">Remember, you need to keep going until you have 3000 coins!</h1><img id=\"box\" src=\"img/prizes/50.png\"></img><img id=\"box\" src=\"img/sad/purpleopenboxsadthumb.png\"></img></div>","key_press":null,"trial_type":"html-keyboard-response","trial_index":119,"time_elapsed":562903,"internal_node_id":"0.0-19.47-1.47"},{"rt":1071.410000033211,"stimulus":"<p>Choose a box,</p>","button_pressed":3,"trial_type":"html-button-response","trial_index":120,"time_elapsed":563976,"internal_node_id":"0.0-19.48-0.48"},{"reward":50,"trial_type":"html-keyboard-response","trial_index":121,"time_elapsed":563977,"internal_node_id":"0.0-19.48-1.48"},{"penalty":250,"trial_type":"html-keyboard-response","trial_index":121,"time_elapsed":563977,"internal_node_id":"0.0-19.48-1.48"},{"fined":false,"trial_type":"html-keyboard-response","trial_index":121,"time_elapsed":563977,"internal_node_id":"0.0-19.48-1.48"},{"rt":null,"stimulus":"<div style=\"background-color:#6dce98\"><h1 style=\"background-color:MediumSeaGreen\" >You earned 50 coins! Well done!</h1><div style=\"background-color:#6dce98\"><h1 style=\"background-color:MediumSeaGreen\" >Only 1250 left to go!</h1><img id=\"box\" src=\"img/prizes/coins.png\"></img><img id=\"box\" src=\"img/empty/redopenbox.png\"></img></div>","key_press":null,"trial_type":"html-keyboard-response","trial_index":121,"time_elapsed":566979,"internal_node_id":"0.0-19.48-1.48"},{"rt":972.1900000004098,"stimulus":"<p>Choose a box,</p>","button_pressed":3,"trial_type":"html-button-response","trial_index":122,"time_elapsed":567954,"internal_node_id":"0.0-19.49-0.49"},{"reward":50,"trial_type":"html-keyboard-response","trial_index":123,"time_elapsed":567954,"internal_node_id":"0.0-19.49-1.49"},{"penalty":250,"trial_type":"html-keyboard-response","trial_index":123,"time_elapsed":567954,"internal_node_id":"0.0-19.49-1.49"},{"fined":false,"trial_type":"html-keyboard-response","trial_index":123,"time_elapsed":567954,"internal_node_id":"0.0-19.49-1.49"},{"rt":null,"stimulus":"<div style=\"background-color:#6dce98\"><h1 style=\"background-color:MediumSeaGreen\" >You earned 50 coins! Well done!</h1><div style=\"background-color:#6dce98\"><h1 style=\"background-color:MediumSeaGreen\" >Only 1200 left to go!</h1><img id=\"box\" src=\"img/prizes/coins.png\"></img><img id=\"box\" src=\"img/empty/redopenbox.png\"></img></div>","key_press":null,"trial_type":"html-keyboard-response","trial_index":123,"time_elapsed":570956,"internal_node_id":"0.0-19.49-1.49"},{"rt":1020.0300000142306,"stimulus":"<p>Choose a box,</p>","button_pressed":0,"trial_type":"html-button-response","trial_index":124,"time_elapsed":571978,"internal_node_id":"0.0-19.50-0.50"},{"reward":100,"trial_type":"html-keyboard-response","trial_index":125,"time_elapsed":571979,"internal_node_id":"0.0-19.50-1.50"},{"penalty":250,"trial_type":"html-keyboard-response","trial_index":125,"time_elapsed":571979,"internal_node_id":"0.0-19.50-1.50"},{"fined":false,"trial_type":"html-keyboard-response","trial_index":125,"time_elapsed":571979,"internal_node_id":"0.0-19.50-1.50"},{"rt":null,"stimulus":"<div style=\"background-color:#6dce98\"><h1 style=\"background-color:MediumSeaGreen\" >You earned 100 coins! Well done!</h1><div style=\"background-color:#6dce98\"><h1 style=\"background-color:MediumSeaGreen\" >Only 1100 left to go!</h1><img id=\"box\" src=\"img/prizes/coins2.png\"></img><img id=\"box\" src=\"img/empty/blueopenbox.png\"></img></div>","key_press":null,"trial_type":"html-keyboard-response","trial_index":125,"time_elapsed":574988,"internal_node_id":"0.0-19.50-1.50"},{"rt":1087.2899999958463,"stimulus":"<p>Choose a box,</p>","button_pressed":0,"trial_type":"html-button-response","trial_index":126,"time_elapsed":576077,"internal_node_id":"0.0-19.51-0.51"},{"reward":100,"trial_type":"html-keyboard-response","trial_index":127,"time_elapsed":576078,"internal_node_id":"0.0-19.51-1.51"},{"penalty":250,"trial_type":"html-keyboard-response","trial_index":127,"time_elapsed":576078,"internal_node_id":"0.0-19.51-1.51"},{"fined":false,"trial_type":"html-keyboard-response","trial_index":127,"time_elapsed":576078,"internal_node_id":"0.0-19.51-1.51"},{"rt":null,"stimulus":"<div style=\"background-color:#6dce98\"><h1 style=\"background-color:MediumSeaGreen\" >You earned 100 coins! Well done!</h1><div style=\"background-color:#6dce98\"><h1 style=\"background-color:MediumSeaGreen\" >Only 1000 left to go!</h1><img id=\"box\" src=\"img/prizes/coins2.png\"></img><img id=\"box\" src=\"img/empty/blueopenbox.png\"></img></div>","key_press":null,"trial_type":"html-keyboard-response","trial_index":127,"time_elapsed":579081,"internal_node_id":"0.0-19.51-1.51"},{"rt":1353.6300000268966,"stimulus":"<p>Choose a box,</p>","button_pressed":2,"trial_type":"html-button-response","trial_index":128,"time_elapsed":580437,"internal_node_id":"0.0-19.52-0.52"},{"reward":50,"trial_type":"html-keyboard-response","trial_index":129,"time_elapsed":580438,"internal_node_id":"0.0-19.52-1.52"},{"penalty":50,"trial_type":"html-keyboard-response","trial_index":129,"time_elapsed":580438,"internal_node_id":"0.0-19.52-1.52"},{"fined":true,"trial_type":"html-keyboard-response","trial_index":129,"time_elapsed":580438,"internal_node_id":"0.0-19.52-1.52"},{"rt":null,"stimulus":"<div style=\"background-color:#ff7157\"><h1 style=\"background-color:MediumSeaGreen\">You earned 50 coins</h1><h1 h1 style=\"background-color:Tomato\">but you have recieved a fine of 50 coins</h1><h1 style=\"background-color:Tomato\">Remember, you need to keep going until you have 3000 coins!</h1><img id=\"box\" src=\"img/prizes/50.png\"></img><img id=\"box\" src=\"img/sad/purpleopenboxsadthumb.png\"></img></div>","key_press":null,"trial_type":"html-keyboard-response","trial_index":129,"time_elapsed":583444,"internal_node_id":"0.0-19.52-1.52"},{"rt":1721.0499999928288,"stimulus":"<p>Choose a box,</p>","button_pressed":2,"trial_type":"html-button-response","trial_index":130,"time_elapsed":585167,"internal_node_id":"0.0-19.53-0.53"},{"reward":50,"trial_type":"html-keyboard-response","trial_index":131,"time_elapsed":585168,"internal_node_id":"0.0-19.53-1.53"},{"penalty":50,"trial_type":"html-keyboard-response","trial_index":131,"time_elapsed":585168,"internal_node_id":"0.0-19.53-1.53"},{"fined":false,"trial_type":"html-keyboard-response","trial_index":131,"time_elapsed":585168,"internal_node_id":"0.0-19.53-1.53"},{"rt":null,"stimulus":"<div style=\"background-color:#6dce98\"><h1 style=\"background-color:MediumSeaGreen\" >You earned 50 coins! Well done!</h1><div style=\"background-color:#6dce98\"><h1 style=\"background-color:MediumSeaGreen\" >Only 950 left to go!</h1><img id=\"box\" src=\"img/prizes/coins.png\"></img><img id=\"box\" src=\"img/empty/purpleopenbox.png\"></img></div>","key_press":null,"trial_type":"html-keyboard-response","trial_index":131,"time_elapsed":588179,"internal_node_id":"0.0-19.53-1.53"},{"rt":1245.5249999766238,"stimulus":"<p>Choose a box,</p>","button_pressed":2,"trial_type":"html-button-response","trial_index":132,"time_elapsed":589428,"internal_node_id":"0.0-19.54-0.54"},{"reward":50,"trial_type":"html-keyboard-response","trial_index":133,"time_elapsed":589428,"internal_node_id":"0.0-19.54-1.54"},{"penalty":50,"trial_type":"html-keyboard-response","trial_index":133,"time_elapsed":589428,"internal_node_id":"0.0-19.54-1.54"},{"fined":false,"trial_type":"html-keyboard-response","trial_index":133,"time_elapsed":589428,"internal_node_id":"0.0-19.54-1.54"},{"rt":null,"stimulus":"<div style=\"background-color:#6dce98\"><h1 style=\"background-color:MediumSeaGreen\" >You earned 50 coins! Well done!</h1><div style=\"background-color:#6dce98\"><h1 style=\"background-color:MediumSeaGreen\" >Only 900 left to go!</h1><img id=\"box\" src=\"img/prizes/coins.png\"></img><img id=\"box\" src=\"img/empty/purpleopenbox.png\"></img></div>","key_press":null,"trial_type":"html-keyboard-response","trial_index":133,"time_elapsed":592441,"internal_node_id":"0.0-19.54-1.54"},{"rt":1196.475000004284,"stimulus":"<p>Choose a box,</p>","button_pressed":2,"trial_type":"html-button-response","trial_index":134,"time_elapsed":593639,"internal_node_id":"0.0-19.55-0.55"},{"reward":50,"trial_type":"html-keyboard-response","trial_index":135,"time_elapsed":593640,"internal_node_id":"0.0-19.55-1.55"},{"penalty":50,"trial_type":"html-keyboard-response","trial_index":135,"time_elapsed":593640,"internal_node_id":"0.0-19.55-1.55"},{"fined":true,"trial_type":"html-keyboard-response","trial_index":135,"time_elapsed":593640,"internal_node_id":"0.0-19.55-1.55"},{"rt":null,"stimulus":"<div style=\"background-color:#ff7157\"><h1 style=\"background-color:MediumSeaGreen\">You earned 50 coins</h1><h1 h1 style=\"background-color:Tomato\">but you have recieved a fine of 50 coins</h1><h1 style=\"background-color:Tomato\">Remember, you need to keep going until you have 3000 coins!</h1><img id=\"box\" src=\"img/prizes/50.png\"></img><img id=\"box\" src=\"img/sad/purpleopenboxsadthumb.png\"></img></div>","key_press":null,"trial_type":"html-keyboard-response","trial_index":135,"time_elapsed":596657,"internal_node_id":"0.0-19.55-1.55"},{"rt":975.6550000165589,"stimulus":"<p>Choose a box,</p>","button_pressed":1,"trial_type":"html-button-response","trial_index":136,"time_elapsed":597635,"internal_node_id":"0.0-19.56-0.56"},{"reward":100,"trial_type":"html-keyboard-response","trial_index":137,"time_elapsed":597636,"internal_node_id":"0.0-19.56-1.56"},{"penalty":1250,"trial_type":"html-keyboard-response","trial_index":137,"time_elapsed":597636,"internal_node_id":"0.0-19.56-1.56"},{"fined":false,"trial_type":"html-keyboard-response","trial_index":137,"time_elapsed":597636,"internal_node_id":"0.0-19.56-1.56"},{"rt":null,"stimulus":"<div style=\"background-color:#6dce98\"><h1 style=\"background-color:MediumSeaGreen\" >You earned 100 coins! Well done!</h1><div style=\"background-color:#6dce98\"><h1 style=\"background-color:MediumSeaGreen\" >Only 800 left to go!</h1><img id=\"box\" src=\"img/prizes/coins2.png\"></img><img id=\"box\" src=\"img/empty/greenopenbox.png\"></img></div>","key_press":null,"trial_type":"html-keyboard-response","trial_index":137,"time_elapsed":600640,"internal_node_id":"0.0-19.56-1.56"},{"rt":1026.9700000062585,"stimulus":"<p>Choose a box,</p>","button_pressed":1,"trial_type":"html-button-response","trial_index":138,"time_elapsed":601670,"internal_node_id":"0.0-19.57-0.57"},{"reward":100,"trial_type":"html-keyboard-response","trial_index":139,"time_elapsed":601671,"internal_node_id":"0.0-19.57-1.57"},{"penalty":1250,"trial_type":"html-keyboard-response","trial_index":139,"time_elapsed":601671,"internal_node_id":"0.0-19.57-1.57"},{"fined":false,"trial_type":"html-keyboard-response","trial_index":139,"time_elapsed":601671,"internal_node_id":"0.0-19.57-1.57"},{"rt":null,"stimulus":"<div style=\"background-color:#6dce98\"><h1 style=\"background-color:MediumSeaGreen\" >You earned 100 coins! Well done!</h1><div style=\"background-color:#6dce98\"><h1 style=\"background-color:MediumSeaGreen\" >Only 700 left to go!</h1><img id=\"box\" src=\"img/prizes/coins2.png\"></img><img id=\"box\" src=\"img/empty/greenopenbox.png\"></img></div>","key_press":null,"trial_type":"html-keyboard-response","trial_index":139,"time_elapsed":604673,"internal_node_id":"0.0-19.57-1.57"},{"rt":1090.390000026673,"stimulus":"<p>Choose a box,</p>","button_pressed":2,"trial_type":"html-button-response","trial_index":140,"time_elapsed":605766,"internal_node_id":"0.0-19.58-0.58"},{"reward":50,"trial_type":"html-keyboard-response","trial_index":141,"time_elapsed":605767,"internal_node_id":"0.0-19.58-1.58"},{"penalty":50,"trial_type":"html-keyboard-response","trial_index":141,"time_elapsed":605767,"internal_node_id":"0.0-19.58-1.58"},{"fined":true,"trial_type":"html-keyboard-response","trial_index":141,"time_elapsed":605767,"internal_node_id":"0.0-19.58-1.58"},{"rt":null,"stimulus":"<div style=\"background-color:#ff7157\"><h1 style=\"background-color:MediumSeaGreen\">You earned 50 coins</h1><h1 h1 style=\"background-color:Tomato\">but you have recieved a fine of 50 coins</h1><h1 style=\"background-color:Tomato\">Remember, you need to keep going until you have 3000 coins!</h1><img id=\"box\" src=\"img/prizes/50.png\"></img><img id=\"box\" src=\"img/sad/purpleopenboxsadthumb.png\"></img></div>","key_press":null,"trial_type":"html-keyboard-response","trial_index":141,"time_elapsed":608772,"internal_node_id":"0.0-19.58-1.58"},{"rt":1045.9350000019185,"stimulus":"<p>Choose a box,</p>","button_pressed":2,"trial_type":"html-button-response","trial_index":142,"time_elapsed":609819,"internal_node_id":"0.0-19.59-0.59"},{"reward":50,"trial_type":"html-keyboard-response","trial_index":143,"time_elapsed":609820,"internal_node_id":"0.0-19.59-1.59"},{"penalty":50,"trial_type":"html-keyboard-response","trial_index":143,"time_elapsed":609820,"internal_node_id":"0.0-19.59-1.59"},{"fined":true,"trial_type":"html-keyboard-response","trial_index":143,"time_elapsed":609820,"internal_node_id":"0.0-19.59-1.59"},{"rt":null,"stimulus":"<div style=\"background-color:#ff7157\"><h1 style=\"background-color:MediumSeaGreen\">You earned 50 coins</h1><h1 h1 style=\"background-color:Tomato\">but you have recieved a fine of 50 coins</h1><h1 style=\"background-color:Tomato\">Remember, you need to keep going until you have 3000 coins!</h1><img id=\"box\" src=\"img/prizes/50.png\"></img><img id=\"box\" src=\"img/sad/purpleopenboxsadthumb.png\"></img></div>","key_press":null,"trial_type":"html-keyboard-response","trial_index":143,"time_elapsed":612830,"internal_node_id":"0.0-19.59-1.59"},{"rt":880.8600000338629,"stimulus":"<p>Choose a box,</p>","button_pressed":2,"trial_type":"html-button-response","trial_index":144,"time_elapsed":613713,"internal_node_id":"0.0-19.60-0.60"},{"reward":50,"trial_type":"html-keyboard-response","trial_index":145,"time_elapsed":613713,"internal_node_id":"0.0-19.60-1.60"},{"penalty":50,"trial_type":"html-keyboard-response","trial_index":145,"time_elapsed":613713,"internal_node_id":"0.0-19.60-1.60"},{"fined":true,"trial_type":"html-keyboard-response","trial_index":145,"time_elapsed":613713,"internal_node_id":"0.0-19.60-1.60"},{"rt":null,"stimulus":"<div style=\"background-color:#ff7157\"><h1 style=\"background-color:MediumSeaGreen\">You earned 50 coins</h1><h1 h1 style=\"background-color:Tomato\">but you have recieved a fine of 50 coins</h1><h1 style=\"background-color:Tomato\">Remember, you need to keep going until you have 3000 coins!</h1><img id=\"box\" src=\"img/prizes/50.png\"></img><img id=\"box\" src=\"img/sad/purpleopenboxsadthumb.png\"></img></div>","key_press":null,"trial_type":"html-keyboard-response","trial_index":145,"time_elapsed":616715,"internal_node_id":"0.0-19.60-1.60"},{"rt":726.7200000351295,"stimulus":"<p>Choose a box,</p>","button_pressed":2,"trial_type":"html-button-response","trial_index":146,"time_elapsed":617445,"internal_node_id":"0.0-19.61-0.61"},{"reward":50,"trial_type":"html-keyboard-response","trial_index":147,"time_elapsed":617445,"internal_node_id":"0.0-19.61-1.61"},{"penalty":50,"trial_type":"html-keyboard-response","trial_index":147,"time_elapsed":617445,"internal_node_id":"0.0-19.61-1.61"},{"fined":false,"trial_type":"html-keyboard-response","trial_index":147,"time_elapsed":617446,"internal_node_id":"0.0-19.61-1.61"},{"rt":null,"stimulus":"<div style=\"background-color:#6dce98\"><h1 style=\"background-color:MediumSeaGreen\" >You earned 50 coins! Well done!</h1><div style=\"background-color:#6dce98\"><h1 style=\"background-color:MediumSeaGreen\" >Only 650 left to go!</h1><img id=\"box\" src=\"img/prizes/coins.png\"></img><img id=\"box\" src=\"img/empty/purpleopenbox.png\"></img></div>","key_press":null,"trial_type":"html-keyboard-response","trial_index":147,"time_elapsed":620462,"internal_node_id":"0.0-19.61-1.61"},{"rt":652.8549999929965,"stimulus":"<p>Choose a box,</p>","button_pressed":2,"trial_type":"html-button-response","trial_index":148,"time_elapsed":621118,"internal_node_id":"0.0-19.62-0.62"},{"reward":50,"trial_type":"html-keyboard-response","trial_index":149,"time_elapsed":621119,"internal_node_id":"0.0-19.62-1.62"},{"penalty":50,"trial_type":"html-keyboard-response","trial_index":149,"time_elapsed":621119,"internal_node_id":"0.0-19.62-1.62"},{"fined":false,"trial_type":"html-keyboard-response","trial_index":149,"time_elapsed":621119,"internal_node_id":"0.0-19.62-1.62"},{"rt":null,"stimulus":"<div style=\"background-color:#6dce98\"><h1 style=\"background-color:MediumSeaGreen\" >You earned 50 coins! Well done!</h1><div style=\"background-color:#6dce98\"><h1 style=\"background-color:MediumSeaGreen\" >Only 600 left to go!</h1><img id=\"box\" src=\"img/prizes/coins.png\"></img><img id=\"box\" src=\"img/empty/purpleopenbox.png\"></img></div>","key_press":null,"trial_type":"html-keyboard-response","trial_index":149,"time_elapsed":624135,"internal_node_id":"0.0-19.62-1.62"},{"rt":992.5200000288896,"stimulus":"<p>Choose a box,</p>","button_pressed":1,"trial_type":"html-button-response","trial_index":150,"time_elapsed":625130,"internal_node_id":"0.0-19.63-0.63"},{"reward":100,"trial_type":"html-keyboard-response","trial_index":151,"time_elapsed":625130,"internal_node_id":"0.0-19.63-1.63"},{"penalty":1250,"trial_type":"html-keyboard-response","trial_index":151,"time_elapsed":625130,"internal_node_id":"0.0-19.63-1.63"},{"fined":false,"trial_type":"html-keyboard-response","trial_index":151,"time_elapsed":625130,"internal_node_id":"0.0-19.63-1.63"},{"rt":null,"stimulus":"<div style=\"background-color:#6dce98\"><h1 style=\"background-color:MediumSeaGreen\" >You earned 100 coins! Well done!</h1><div style=\"background-color:#6dce98\"><h1 style=\"background-color:MediumSeaGreen\" >Only 500 left to go!</h1><img id=\"box\" src=\"img/prizes/coins2.png\"></img><img id=\"box\" src=\"img/empty/greenopenbox.png\"></img></div>","key_press":null,"trial_type":"html-keyboard-response","trial_index":151,"time_elapsed":628131,"internal_node_id":"0.0-19.63-1.63"},{"rt":920.9249999839813,"stimulus":"<p>Choose a box,</p>","button_pressed":3,"trial_type":"html-button-response","trial_index":152,"time_elapsed":629055,"internal_node_id":"0.0-19.64-0.64"},{"reward":50,"trial_type":"html-keyboard-response","trial_index":153,"time_elapsed":629056,"internal_node_id":"0.0-19.64-1.64"},{"penalty":250,"trial_type":"html-keyboard-response","trial_index":153,"time_elapsed":629056,"internal_node_id":"0.0-19.64-1.64"},{"fined":false,"trial_type":"html-keyboard-response","trial_index":153,"time_elapsed":629056,"internal_node_id":"0.0-19.64-1.64"},{"rt":null,"stimulus":"<div style=\"background-color:#6dce98\"><h1 style=\"background-color:MediumSeaGreen\" >You earned 50 coins! Well done!</h1><div style=\"background-color:#6dce98\"><h1 style=\"background-color:MediumSeaGreen\" >Only 450 left to go!</h1><img id=\"box\" src=\"img/prizes/coins.png\"></img><img id=\"box\" src=\"img/empty/redopenbox.png\"></img></div>","key_press":null,"trial_type":"html-keyboard-response","trial_index":153,"time_elapsed":632063,"internal_node_id":"0.0-19.64-1.64"},{"rt":958.3649999694899,"stimulus":"<p>Choose a box,</p>","button_pressed":2,"trial_type":"html-button-response","trial_index":154,"time_elapsed":633024,"internal_node_id":"0.0-19.65-0.65"},{"reward":50,"trial_type":"html-keyboard-response","trial_index":155,"time_elapsed":633025,"internal_node_id":"0.0-19.65-1.65"},{"penalty":50,"trial_type":"html-keyboard-response","trial_index":155,"time_elapsed":633025,"internal_node_id":"0.0-19.65-1.65"},{"fined":false,"trial_type":"html-keyboard-response","trial_index":155,"time_elapsed":633025,"internal_node_id":"0.0-19.65-1.65"},{"rt":null,"stimulus":"<div style=\"background-color:#6dce98\"><h1 style=\"background-color:MediumSeaGreen\" >You earned 50 coins! Well done!</h1><div style=\"background-color:#6dce98\"><h1 style=\"background-color:MediumSeaGreen\" >Only 400 left to go!</h1><img id=\"box\" src=\"img/prizes/coins.png\"></img><img id=\"box\" src=\"img/empty/purpleopenbox.png\"></img></div>","key_press":null,"trial_type":"html-keyboard-response","trial_index":155,"time_elapsed":636039,"internal_node_id":"0.0-19.65-1.65"},{"rt":972.5099999923259,"stimulus":"<p>Choose a box,</p>","button_pressed":2,"trial_type":"html-button-response","trial_index":156,"time_elapsed":637015,"internal_node_id":"0.0-19.66-0.66"},{"reward":50,"trial_type":"html-keyboard-response","trial_index":157,"time_elapsed":637016,"internal_node_id":"0.0-19.66-1.66"},{"penalty":50,"trial_type":"html-keyboard-response","trial_index":157,"time_elapsed":637016,"internal_node_id":"0.0-19.66-1.66"},{"fined":true,"trial_type":"html-keyboard-response","trial_index":157,"time_elapsed":637016,"internal_node_id":"0.0-19.66-1.66"},{"rt":null,"stimulus":"<div style=\"background-color:#ff7157\"><h1 style=\"background-color:MediumSeaGreen\">You earned 50 coins</h1><h1 h1 style=\"background-color:Tomato\">but you have recieved a fine of 50 coins</h1><h1 style=\"background-color:Tomato\">Remember, you need to keep going until you have 3000 coins!</h1><img id=\"box\" src=\"img/prizes/50.png\"></img><img id=\"box\" src=\"img/sad/purpleopenboxsadthumb.png\"></img></div>","key_press":null,"trial_type":"html-keyboard-response","trial_index":157,"time_elapsed":640027,"internal_node_id":"0.0-19.66-1.66"},{"rt":1120.290000049863,"stimulus":"<p>Choose a box,</p>","button_pressed":2,"trial_type":"html-button-response","trial_index":158,"time_elapsed":641150,"internal_node_id":"0.0-19.67-0.67"},{"reward":50,"trial_type":"html-keyboard-response","trial_index":159,"time_elapsed":641150,"internal_node_id":"0.0-19.67-1.67"},{"penalty":50,"trial_type":"html-keyboard-response","trial_index":159,"time_elapsed":641150,"internal_node_id":"0.0-19.67-1.67"},{"fined":false,"trial_type":"html-keyboard-response","trial_index":159,"time_elapsed":641150,"internal_node_id":"0.0-19.67-1.67"},{"rt":null,"stimulus":"<div style=\"background-color:#6dce98\"><h1 style=\"background-color:MediumSeaGreen\" >You earned 50 coins! Well done!</h1><div style=\"background-color:#6dce98\"><h1 style=\"background-color:MediumSeaGreen\" >Only 350 left to go!</h1><img id=\"box\" src=\"img/prizes/coins.png\"></img><img id=\"box\" src=\"img/empty/purpleopenbox.png\"></img></div>","key_press":null,"trial_type":"html-keyboard-response","trial_index":159,"time_elapsed":644156,"internal_node_id":"0.0-19.67-1.67"},{"rt":1572.0800000126474,"stimulus":"<p>Choose a box,</p>","button_pressed":3,"trial_type":"html-button-response","trial_index":160,"time_elapsed":645731,"internal_node_id":"0.0-19.68-0.68"},{"reward":50,"trial_type":"html-keyboard-response","trial_index":161,"time_elapsed":645732,"internal_node_id":"0.0-19.68-1.68"},{"penalty":250,"trial_type":"html-keyboard-response","trial_index":161,"time_elapsed":645732,"internal_node_id":"0.0-19.68-1.68"},{"fined":false,"trial_type":"html-keyboard-response","trial_index":161,"time_elapsed":645732,"internal_node_id":"0.0-19.68-1.68"},{"rt":null,"stimulus":"<div style=\"background-color:#6dce98\"><h1 style=\"background-color:MediumSeaGreen\" >You earned 50 coins! Well done!</h1><div style=\"background-color:#6dce98\"><h1 style=\"background-color:MediumSeaGreen\" >Only 300 left to go!</h1><img id=\"box\" src=\"img/prizes/coins.png\"></img><img id=\"box\" src=\"img/empty/redopenbox.png\"></img></div>","key_press":null,"trial_type":"html-keyboard-response","trial_index":161,"time_elapsed":648734,"internal_node_id":"0.0-19.68-1.68"},{"rt":1001.8299999646842,"stimulus":"<p>Choose a box,</p>","button_pressed":1,"trial_type":"html-button-response","trial_index":162,"time_elapsed":649738,"internal_node_id":"0.0-19.69-0.69"},{"reward":100,"trial_type":"html-keyboard-response","trial_index":163,"time_elapsed":649738,"internal_node_id":"0.0-19.69-1.69"},{"penalty":1250,"trial_type":"html-keyboard-response","trial_index":163,"time_elapsed":649738,"internal_node_id":"0.0-19.69-1.69"},{"fined":true,"trial_type":"html-keyboard-response","trial_index":163,"time_elapsed":649738,"internal_node_id":"0.0-19.69-1.69"},{"rt":null,"stimulus":"<div style=\"background-color:#ff7157\"><h1 style=\"background-color:MediumSeaGreen\">You earned 100 coins</h1><h1 h1 style=\"background-color:Tomato\">but you have recieved a fine of 1250 coins</h1><h1 style=\"background-color:Tomato\">Remember, you need to keep going until you have 3000 coins!</h1><img id=\"box\" src=\"img/prizes/1250.png\"></img><img id=\"box\" src=\"img/sad/greenopenboxsadthumb.png\"></img></div>","key_press":null,"trial_type":"html-keyboard-response","trial_index":163,"time_elapsed":652747,"internal_node_id":"0.0-19.69-1.69"},{"rt":1253.279999946244,"stimulus":"<p>Choose a box,</p>","button_pressed":2,"trial_type":"html-button-response","trial_index":164,"time_elapsed":654003,"internal_node_id":"0.0-19.70-0.70"},{"reward":50,"trial_type":"html-keyboard-response","trial_index":165,"time_elapsed":654003,"internal_node_id":"0.0-19.70-1.70"},{"penalty":50,"trial_type":"html-keyboard-response","trial_index":165,"time_elapsed":654003,"internal_node_id":"0.0-19.70-1.70"},{"fined":false,"trial_type":"html-keyboard-response","trial_index":165,"time_elapsed":654003,"internal_node_id":"0.0-19.70-1.70"},{"rt":null,"stimulus":"<div style=\"background-color:#6dce98\"><h1 style=\"background-color:MediumSeaGreen\" >You earned 50 coins! Well done!</h1><div style=\"background-color:#6dce98\"><h1 style=\"background-color:MediumSeaGreen\" >Only 1400 left to go!</h1><img id=\"box\" src=\"img/prizes/coins.png\"></img><img id=\"box\" src=\"img/empty/purpleopenbox.png\"></img></div>","key_press":null,"trial_type":"html-keyboard-response","trial_index":165,"time_elapsed":657008,"internal_node_id":"0.0-19.70-1.70"},{"rt":1009.0399999753572,"stimulus":"<p>Choose a box,</p>","button_pressed":2,"trial_type":"html-button-response","trial_index":166,"time_elapsed":658020,"internal_node_id":"0.0-19.71-0.71"},{"reward":50,"trial_type":"html-keyboard-response","trial_index":167,"time_elapsed":658021,"internal_node_id":"0.0-19.71-1.71"},{"penalty":50,"trial_type":"html-keyboard-response","trial_index":167,"time_elapsed":658021,"internal_node_id":"0.0-19.71-1.71"},{"fined":false,"trial_type":"html-keyboard-response","trial_index":167,"time_elapsed":658021,"internal_node_id":"0.0-19.71-1.71"},{"rt":null,"stimulus":"<div style=\"background-color:#6dce98\"><h1 style=\"background-color:MediumSeaGreen\" >You earned 50 coins! Well done!</h1><div style=\"background-color:#6dce98\"><h1 style=\"background-color:MediumSeaGreen\" >Only 1350 left to go!</h1><img id=\"box\" src=\"img/prizes/coins.png\"></img><img id=\"box\" src=\"img/empty/purpleopenbox.png\"></img></div>","key_press":null,"trial_type":"html-keyboard-response","trial_index":167,"time_elapsed":661035,"internal_node_id":"0.0-19.71-1.71"},{"rt":1178.409999993164,"stimulus":"<p>Choose a box,</p>","button_pressed":3,"trial_type":"html-button-response","trial_index":168,"time_elapsed":662216,"internal_node_id":"0.0-19.72-0.72"},{"reward":50,"trial_type":"html-keyboard-response","trial_index":169,"time_elapsed":662216,"internal_node_id":"0.0-19.72-1.72"},{"penalty":250,"trial_type":"html-keyboard-response","trial_index":169,"time_elapsed":662216,"internal_node_id":"0.0-19.72-1.72"},{"fined":false,"trial_type":"html-keyboard-response","trial_index":169,"time_elapsed":662216,"internal_node_id":"0.0-19.72-1.72"},{"rt":null,"stimulus":"<div style=\"background-color:#6dce98\"><h1 style=\"background-color:MediumSeaGreen\" >You earned 50 coins! Well done!</h1><div style=\"background-color:#6dce98\"><h1 style=\"background-color:MediumSeaGreen\" >Only 1300 left to go!</h1><img id=\"box\" src=\"img/prizes/coins.png\"></img><img id=\"box\" src=\"img/empty/redopenbox.png\"></img></div>","key_press":null,"trial_type":"html-keyboard-response","trial_index":169,"time_elapsed":665224,"internal_node_id":"0.0-19.72-1.72"},{"rt":1024.6799999731593,"stimulus":"<p>Choose a box,</p>","button_pressed":1,"trial_type":"html-button-response","trial_index":170,"time_elapsed":666254,"internal_node_id":"0.0-19.73-0.73"},{"reward":100,"trial_type":"html-keyboard-response","trial_index":171,"time_elapsed":666254,"internal_node_id":"0.0-19.73-1.73"},{"penalty":1250,"trial_type":"html-keyboard-response","trial_index":171,"time_elapsed":666254,"internal_node_id":"0.0-19.73-1.73"},{"fined":false,"trial_type":"html-keyboard-response","trial_index":171,"time_elapsed":666254,"internal_node_id":"0.0-19.73-1.73"},{"rt":null,"stimulus":"<div style=\"background-color:#6dce98\"><h1 style=\"background-color:MediumSeaGreen\" >You earned 100 coins! Well done!</h1><div style=\"background-color:#6dce98\"><h1 style=\"background-color:MediumSeaGreen\" >Only 1200 left to go!</h1><img id=\"box\" src=\"img/prizes/coins2.png\"></img><img id=\"box\" src=\"img/empty/greenopenbox.png\"></img></div>","key_press":null,"trial_type":"html-keyboard-response","trial_index":171,"time_elapsed":669257,"internal_node_id":"0.0-19.73-1.73"},{"rt":1071.7899999581277,"stimulus":"<p>Choose a box,</p>","button_pressed":1,"trial_type":"html-button-response","trial_index":172,"time_elapsed":670331,"internal_node_id":"0.0-19.74-0.74"},{"reward":100,"trial_type":"html-keyboard-response","trial_index":173,"time_elapsed":670332,"internal_node_id":"0.0-19.74-1.74"},{"penalty":1250,"trial_type":"html-keyboard-response","trial_index":173,"time_elapsed":670332,"internal_node_id":"0.0-19.74-1.74"},{"fined":false,"trial_type":"html-keyboard-response","trial_index":173,"time_elapsed":670332,"internal_node_id":"0.0-19.74-1.74"},{"rt":null,"stimulus":"<div style=\"background-color:#6dce98\"><h1 style=\"background-color:MediumSeaGreen\" >You earned 100 coins! Well done!</h1><div style=\"background-color:#6dce98\"><h1 style=\"background-color:MediumSeaGreen\" >Only 1100 left to go!</h1><img id=\"box\" src=\"img/prizes/coins2.png\"></img><img id=\"box\" src=\"img/empty/greenopenbox.png\"></img></div>","key_press":null,"trial_type":"html-keyboard-response","trial_index":173,"time_elapsed":673335,"internal_node_id":"0.0-19.74-1.74"},{"rt":696.9849999877624,"stimulus":"<p>Choose a box,</p>","button_pressed":0,"trial_type":"html-button-response","trial_index":174,"time_elapsed":674033,"internal_node_id":"0.0-19.75-0.75"},{"reward":100,"trial_type":"html-keyboard-response","trial_index":175,"time_elapsed":674033,"internal_node_id":"0.0-19.75-1.75"},{"penalty":250,"trial_type":"html-keyboard-response","trial_index":175,"time_elapsed":674033,"internal_node_id":"0.0-19.75-1.75"},{"fined":true,"trial_type":"html-keyboard-response","trial_index":175,"time_elapsed":674033,"internal_node_id":"0.0-19.75-1.75"},{"rt":null,"stimulus":"<div style=\"background-color:#ff7157\"><h1 style=\"background-color:MediumSeaGreen\">You earned 100 coins</h1><h1 h1 style=\"background-color:Tomato\">but you have recieved a fine of 250 coins</h1><h1 style=\"background-color:Tomato\">Remember, you need to keep going until you have 3000 coins!</h1><img id=\"box\" src=\"img/prizes/250.png\"></img><img id=\"box\" src=\"img/sad/blueopenboxsadthumb.png\"></img></div>","key_press":null,"trial_type":"html-keyboard-response","trial_index":175,"time_elapsed":677036,"internal_node_id":"0.0-19.75-1.75"},{"rt":950.8449999848381,"stimulus":"<p>Choose a box,</p>","button_pressed":0,"trial_type":"html-button-response","trial_index":176,"time_elapsed":677990,"internal_node_id":"0.0-19.76-0.76"},{"reward":100,"trial_type":"html-keyboard-response","trial_index":177,"time_elapsed":677990,"internal_node_id":"0.0-19.76-1.76"},{"penalty":250,"trial_type":"html-keyboard-response","trial_index":177,"time_elapsed":677990,"internal_node_id":"0.0-19.76-1.76"},{"fined":true,"trial_type":"html-keyboard-response","trial_index":177,"time_elapsed":677990,"internal_node_id":"0.0-19.76-1.76"},{"rt":null,"stimulus":"<div style=\"background-color:#ff7157\"><h1 style=\"background-color:MediumSeaGreen\">You earned 100 coins</h1><h1 h1 style=\"background-color:Tomato\">but you have recieved a fine of 250 coins</h1><h1 style=\"background-color:Tomato\">Remember, you need to keep going until you have 3000 coins!</h1><img id=\"box\" src=\"img/prizes/250.png\"></img><img id=\"box\" src=\"img/sad/blueopenboxsadthumb.png\"></img></div>","key_press":null,"trial_type":"html-keyboard-response","trial_index":177,"time_elapsed":680996,"internal_node_id":"0.0-19.76-1.76"},{"rt":1021.1550000240095,"stimulus":"<p>Choose a box,</p>","button_pressed":2,"trial_type":"html-button-response","trial_index":178,"time_elapsed":682019,"internal_node_id":"0.0-19.77-0.77"},{"reward":50,"trial_type":"html-keyboard-response","trial_index":179,"time_elapsed":682020,"internal_node_id":"0.0-19.77-1.77"},{"penalty":50,"trial_type":"html-keyboard-response","trial_index":179,"time_elapsed":682020,"internal_node_id":"0.0-19.77-1.77"},{"fined":false,"trial_type":"html-keyboard-response","trial_index":179,"time_elapsed":682020,"internal_node_id":"0.0-19.77-1.77"},{"rt":null,"stimulus":"<div style=\"background-color:#6dce98\"><h1 style=\"background-color:MediumSeaGreen\" >You earned 50 coins! Well done!</h1><div style=\"background-color:#6dce98\"><h1 style=\"background-color:MediumSeaGreen\" >Only 1350 left to go!</h1><img id=\"box\" src=\"img/prizes/coins.png\"></img><img id=\"box\" src=\"img/empty/purpleopenbox.png\"></img></div>","key_press":null,"trial_type":"html-keyboard-response","trial_index":179,"time_elapsed":685031,"internal_node_id":"0.0-19.77-1.77"},{"rt":1013.9900000067428,"stimulus":"<p>Choose a box,</p>","button_pressed":3,"trial_type":"html-button-response","trial_index":180,"time_elapsed":686048,"internal_node_id":"0.0-19.78-0.78"},{"reward":50,"trial_type":"html-keyboard-response","trial_index":181,"time_elapsed":686049,"internal_node_id":"0.0-19.78-1.78"},{"penalty":250,"trial_type":"html-keyboard-response","trial_index":181,"time_elapsed":686049,"internal_node_id":"0.0-19.78-1.78"},{"fined":false,"trial_type":"html-keyboard-response","trial_index":181,"time_elapsed":686049,"internal_node_id":"0.0-19.78-1.78"},{"rt":null,"stimulus":"<div style=\"background-color:#6dce98\"><h1 style=\"background-color:MediumSeaGreen\" >You earned 50 coins! Well done!</h1><div style=\"background-color:#6dce98\"><h1 style=\"background-color:MediumSeaGreen\" >Only 1300 left to go!</h1><img id=\"box\" src=\"img/prizes/coins.png\"></img><img id=\"box\" src=\"img/empty/redopenbox.png\"></img></div>","key_press":null,"trial_type":"html-keyboard-response","trial_index":181,"time_elapsed":689056,"internal_node_id":"0.0-19.78-1.78"},{"rt":1150.8250000188127,"stimulus":"<p>Choose a box,</p>","button_pressed":3,"trial_type":"html-button-response","trial_index":182,"time_elapsed":690210,"internal_node_id":"0.0-19.79-0.79"},{"reward":50,"trial_type":"html-keyboard-response","trial_index":183,"time_elapsed":690211,"internal_node_id":"0.0-19.79-1.79"},{"penalty":250,"trial_type":"html-keyboard-response","trial_index":183,"time_elapsed":690211,"internal_node_id":"0.0-19.79-1.79"},{"fined":false,"trial_type":"html-keyboard-response","trial_index":183,"time_elapsed":690211,"internal_node_id":"0.0-19.79-1.79"},{"rt":null,"stimulus":"<div style=\"background-color:#6dce98\"><h1 style=\"background-color:MediumSeaGreen\" >You earned 50 coins! Well done!</h1><div style=\"background-color:#6dce98\"><h1 style=\"background-color:MediumSeaGreen\" >Only 1250 left to go!</h1><img id=\"box\" src=\"img/prizes/coins.png\"></img><img id=\"box\" src=\"img/empty/redopenbox.png\"></img></div>","key_press":null,"trial_type":"html-keyboard-response","trial_index":183,"time_elapsed":693228,"internal_node_id":"0.0-19.79-1.79"},{"rt":1516.3949999841861,"stimulus":"<p>Choose a box,</p>","button_pressed":2,"trial_type":"html-button-response","trial_index":184,"time_elapsed":694746,"internal_node_id":"0.0-19.80-0.80"},{"reward":50,"trial_type":"html-keyboard-response","trial_index":185,"time_elapsed":694746,"internal_node_id":"0.0-19.80-1.80"},{"penalty":50,"trial_type":"html-keyboard-response","trial_index":185,"time_elapsed":694746,"internal_node_id":"0.0-19.80-1.80"},{"fined":true,"trial_type":"html-keyboard-response","trial_index":185,"time_elapsed":694746,"internal_node_id":"0.0-19.80-1.80"},{"rt":null,"stimulus":"<div style=\"background-color:#ff7157\"><h1 style=\"background-color:MediumSeaGreen\">You earned 50 coins</h1><h1 h1 style=\"background-color:Tomato\">but you have recieved a fine of 50 coins</h1><h1 style=\"background-color:Tomato\">Remember, you need to keep going until you have 3000 coins!</h1><img id=\"box\" src=\"img/prizes/50.png\"></img><img id=\"box\" src=\"img/sad/purpleopenboxsadthumb.png\"></img></div>","key_press":null,"trial_type":"html-keyboard-response","trial_index":185,"time_elapsed":697750,"internal_node_id":"0.0-19.80-1.80"},{"rt":671.355000056792,"stimulus":"<p>Choose a box,</p>","button_pressed":2,"trial_type":"html-button-response","trial_index":186,"time_elapsed":698425,"internal_node_id":"0.0-19.81-0.81"},{"reward":50,"trial_type":"html-keyboard-response","trial_index":187,"time_elapsed":698426,"internal_node_id":"0.0-19.81-1.81"},{"penalty":50,"trial_type":"html-keyboard-response","trial_index":187,"time_elapsed":698426,"internal_node_id":"0.0-19.81-1.81"},{"fined":false,"trial_type":"html-keyboard-response","trial_index":187,"time_elapsed":698426,"internal_node_id":"0.0-19.81-1.81"},{"rt":null,"stimulus":"<div style=\"background-color:#6dce98\"><h1 style=\"background-color:MediumSeaGreen\" >You earned 50 coins! Well done!</h1><div style=\"background-color:#6dce98\"><h1 style=\"background-color:MediumSeaGreen\" >Only 1200 left to go!</h1><img id=\"box\" src=\"img/prizes/coins.png\"></img><img id=\"box\" src=\"img/empty/purpleopenbox.png\"></img></div>","key_press":null,"trial_type":"html-keyboard-response","trial_index":187,"time_elapsed":701431,"internal_node_id":"0.0-19.81-1.81"},{"rt":639.5699999993667,"stimulus":"<p>Choose a box,</p>","button_pressed":2,"trial_type":"html-button-response","trial_index":188,"time_elapsed":702073,"internal_node_id":"0.0-19.82-0.82"},{"reward":50,"trial_type":"html-keyboard-response","trial_index":189,"time_elapsed":702074,"internal_node_id":"0.0-19.82-1.82"},{"penalty":50,"trial_type":"html-keyboard-response","trial_index":189,"time_elapsed":702074,"internal_node_id":"0.0-19.82-1.82"},{"fined":true,"trial_type":"html-keyboard-response","trial_index":189,"time_elapsed":702074,"internal_node_id":"0.0-19.82-1.82"},{"rt":null,"stimulus":"<div style=\"background-color:#ff7157\"><h1 style=\"background-color:MediumSeaGreen\">You earned 50 coins</h1><h1 h1 style=\"background-color:Tomato\">but you have recieved a fine of 50 coins</h1><h1 style=\"background-color:Tomato\">Remember, you need to keep going until you have 3000 coins!</h1><img id=\"box\" src=\"img/prizes/50.png\"></img><img id=\"box\" src=\"img/sad/purpleopenboxsadthumb.png\"></img></div>","key_press":null,"trial_type":"html-keyboard-response","trial_index":189,"time_elapsed":705079,"internal_node_id":"0.0-19.82-1.82"},{"rt":640.7500000204891,"stimulus":"<p>Choose a box,</p>","button_pressed":2,"trial_type":"html-button-response","trial_index":190,"time_elapsed":705723,"internal_node_id":"0.0-19.83-0.83"},{"reward":50,"trial_type":"html-keyboard-response","trial_index":191,"time_elapsed":705723,"internal_node_id":"0.0-19.83-1.83"},{"penalty":50,"trial_type":"html-keyboard-response","trial_index":191,"time_elapsed":705723,"internal_node_id":"0.0-19.83-1.83"},{"fined":false,"trial_type":"html-keyboard-response","trial_index":191,"time_elapsed":705723,"internal_node_id":"0.0-19.83-1.83"},{"rt":null,"stimulus":"<div style=\"background-color:#6dce98\"><h1 style=\"background-color:MediumSeaGreen\" >You earned 50 coins! Well done!</h1><div style=\"background-color:#6dce98\"><h1 style=\"background-color:MediumSeaGreen\" >Only 1150 left to go!</h1><img id=\"box\" src=\"img/prizes/coins.png\"></img><img id=\"box\" src=\"img/empty/purpleopenbox.png\"></img></div>","key_press":null,"trial_type":"html-keyboard-response","trial_index":191,"time_elapsed":708740,"internal_node_id":"0.0-19.83-1.83"},{"rt":467.5649999990128,"stimulus":"<p>Choose a box,</p>","button_pressed":2,"trial_type":"html-button-response","trial_index":192,"time_elapsed":709208,"internal_node_id":"0.0-19.84-0.84"},{"reward":50,"trial_type":"html-keyboard-response","trial_index":19