[{"view_history":"[{\"page_index\":0,\"viewing_time\":17228.235000016866},{\"page_index\":1,\"viewing_time\":7585.2649999724235},{\"page_index\":2,\"viewing_time\":5103.100000007544},{\"page_index\":3,\"viewing_time\":6787.765000015497},{\"page_index\":4,\"viewing_time\":3307.589999982156},{\"page_index\":5,\"viewing_time\":2808.180000021821}]","rt":42821.12999999663,"trial_type":"instructions","trial_index":0,"time_elapsed":42831,"internal_node_id":"0.0-0.0"},{"rt":9523.094999982277,"responses":"{\"Q0\":\"Yes\",\"Q1\":\"Yes\",\"Q2\":\"Yes\"}","question_order":"[0,1,2]","trial_type":"survey-multi-choice","trial_index":1,"time_elapsed":52357,"internal_node_id":"0.0-1.0-0.0"},{"rt":15993.424999993294,"responses":"{\"Q0\":\"Yes\",\"Q1\":\"Yes\",\"Q2\":\"Yes\"}","question_order":"[0,1,2]","trial_type":"survey-multi-choice","trial_index":2,"time_elapsed":68358,"internal_node_id":"0.0-2.0-0.0"},{"rt":2451.215000008233,"responses":"{\"Q0\":\"6046740c46c42f05d552e99e\"}","trial_type":"survey-text","trial_index":3,"time_elapsed":70819,"internal_node_id":"0.0-3.0"},{"rt":4186.5149999794085,"responses":"{\"Q0\":\"Male\",\"Q1\":\"18-25\"}","question_order":"[0,1]","trial_type":"survey-multi-choice","trial_index":4,"time_elapsed":75007,"internal_node_id":"0.0-4.0"},{"rt":3060.4199999943376,"responses":"{\"Q0\":\"\"}","trial_type":"survey-text","trial_index":5,"time_elapsed":78076,"internal_node_id":"0.0-5.0"},{"view_history":"[{\"page_index\":0,\"viewing_time\":2073.915000015404}]","rt":2074.2800000007264,"trial_type":"instructions","trial_index":6,"time_elapsed":80151,"internal_node_id":"0.0-6.0"},{"rt":9939.1900000046,"responses":"{\"Interested\":3,\"Distressed\":2,\"Excited\":2,\"Upset\":1}","question_order":"[0,1,2,3]","trial_type":"survey-likert","trial_index":7,"time_elapsed":90093,"internal_node_id":"0.0-7.0"},{"rt":19781.00000001723,"responses":"{\"Strong\":2,\"Guilty\":0,\"Scared\":0,\"Hostile\":1}","question_order":"[0,1,2,3]","trial_type":"survey-likert","trial_index":8,"time_elapsed":109884,"internal_node_id":"0.0-8.0"},{"rt":20970.555000007153,"responses":"{\"Enthusiastic\":2,\"Proud\":2,\"Irritable\":3,\"Alert\":2}","question_order":"[0,1,2,3]","trial_type":"survey-likert","trial_index":9,"time_elapsed":130861,"internal_node_id":"0.0-9.0"},{"rt":9188.724999985425,"responses":"{\"Ashamed\":0,\"Inspired\":0,\"Nervous\":0,\"Determined\":2}","question_order":"[0,1,2,3]","trial_type":"survey-likert","trial_index":10,"time_elapsed":140057,"internal_node_id":"0.0-10.0"},{"rt":9863.515000004554,"responses":"{\"Attentive\":2,\"Jittery\":0,\"Active\":2,\"Afraid\":0}","question_order":"[0,1,2,3]","trial_type":"survey-likert","trial_index":11,"time_elapsed":149928,"internal_node_id":"0.0-11.0"},{"rt":15217.260000004899,"responses":"{\"Q0\":1,\"Q1\":0,\"Q2\":0,\"Q3\":1}","question_order":"[0,1,2,3]","trial_type":"survey-likert","trial_index":12,"time_elapsed":165152,"internal_node_id":"0.0-12.0"},{"rt":14599.985000008019,"responses":"{\"Q0\":0,\"Q1\":0,\"Q2\":0,\"Q3\":0}","question_order":"[0,1,2,3]","trial_type":"survey-likert","trial_index":13,"time_elapsed":179759,"internal_node_id":"0.0-13.0"},{"rt":10285.949999990407,"responses":"{\"Q0\":0,\"Q1\":0,\"Q2\":0,\"Q3\":1}","question_order":"[0,1,2,3]","trial_type":"survey-likert","trial_index":14,"time_elapsed":190052,"internal_node_id":"0.0-14.0"},{"rt":8047.915000002831,"responses":"{\"Q0\":0,\"Q1\":1,\"Q2\":0}","question_order":"[0,1,2]","trial_type":"survey-likert","trial_index":15,"time_elapsed":198106,"internal_node_id":"0.0-15.0"},{"view_history":"[{\"page_index\":0,\"viewing_time\":2772.785000008298},{\"page_index\":1,\"viewing_time\":8122.254999994766},{\"page_index\":2,\"viewing_time\":6540.130000008503}]","rt":17435.570000001462,"trial_type":"instructions","trial_index":16,"time_elapsed":215548,"internal_node_id":"0.0-16.0"},{"rt":1803.025000001071,"stimulus":"<p>Choose a box,</p>","button_pressed":3,"trial_type":"html-button-response","trial_index":17,"time_elapsed":217354,"internal_node_id":"0.0-17.0-0.0"},{"reward":50,"trial_type":"html-keyboard-response","trial_index":18,"time_elapsed":217354,"internal_node_id":"0.0-17.0-1.0"},{"penalty":250,"trial_type":"html-keyboard-response","trial_index":18,"time_elapsed":217354,"internal_node_id":"0.0-17.0-1.0"},{"fined":false,"trial_type":"html-keyboard-response","trial_index":18,"time_elapsed":217354,"internal_node_id":"0.0-17.0-1.0"},{"rt":null,"stimulus":"<div style=\"background-color:#6dce98\"><h1 style=\"background-color:MediumSeaGreen\" >You earned 50 coins! Well done!</h1><div style=\"background-color:#6dce98\"><h1 style=\"background-color:MediumSeaGreen\" >Only 1450 left to go!</h1><img id=\"box\" src=\"img/prizes/coins.png\"></img><img id=\"box\" src=\"img/empty/redopenbox.png\"></img></div>","key_press":null,"trial_type":"html-keyboard-response","trial_index":18,"time_elapsed":220356,"internal_node_id":"0.0-17.0-1.0"},{"rt":3448.325000004843,"stimulus":"<p>Choose a box,</p>","button_pressed":3,"trial_type":"html-button-response","trial_index":19,"time_elapsed":223807,"internal_node_id":"0.0-17.0-0.1"},{"reward":50,"trial_type":"html-keyboard-response","trial_index":20,"time_elapsed":223807,"internal_node_id":"0.0-17.0-1.1"},{"penalty":250,"trial_type":"html-keyboard-response","trial_index":20,"time_elapsed":223807,"internal_node_id":"0.0-17.0-1.1"},{"fined":false,"trial_type":"html-keyboard-response","trial_index":20,"time_elapsed":223807,"internal_node_id":"0.0-17.0-1.1"},{"rt":null,"stimulus":"<div style=\"background-color:#6dce98\"><h1 style=\"background-color:MediumSeaGreen\" >You earned 50 coins! Well done!</h1><div style=\"background-color:#6dce98\"><h1 style=\"background-color:MediumSeaGreen\" >Only 1400 left to go!</h1><img id=\"box\" src=\"img/prizes/coins.png\"></img><img id=\"box\" src=\"img/empty/redopenbox.png\"></img></div>","key_press":null,"trial_type":"html-keyboard-response","trial_index":20,"time_elapsed":226809,"internal_node_id":"0.0-17.0-1.1"},{"rt":758.4099999803584,"stimulus":"<p>Choose a box,</p>","button_pressed":3,"trial_type":"html-button-response","trial_index":21,"time_elapsed":227569,"internal_node_id":"0.0-17.0-0.2"},{"reward":50,"trial_type":"html-keyboard-response","trial_index":22,"time_elapsed":227570,"internal_node_id":"0.0-17.0-1.2"},{"penalty":250,"trial_type":"html-keyboard-response","trial_index":22,"time_elapsed":227570,"internal_node_id":"0.0-17.0-1.2"},{"fined":false,"trial_type":"html-keyboard-response","trial_index":22,"time_elapsed":227570,"internal_node_id":"0.0-17.0-1.2"},{"rt":null,"stimulus":"<div style=\"background-color:#6dce98\"><h1 style=\"background-color:MediumSeaGreen\" >You earned 50 coins! Well done!</h1><div style=\"background-color:#6dce98\"><h1 style=\"background-color:MediumSeaGreen\" >Only 1350 left to go!</h1><img id=\"box\" src=\"img/prizes/coins.png\"></img><img id=\"box\" src=\"img/empty/redopenbox.png\"></img></div>","key_press":null,"trial_type":"html-keyboard-response","trial_index":22,"time_elapsed":230585,"internal_node_id":"0.0-17.0-1.2"},{"view_history":"[{\"page_index\":0,\"viewing_time\":7345.279999979539}]","rt":7345.600000000559,"trial_type":"instructions","trial_index":23,"time_elapsed":237931,"internal_node_id":"0.0-18.0"},{"rt":1021.4500000001863,"stimulus":"<p>Choose a box,</p>","button_pressed":3,"trial_type":"html-button-response","trial_index":24,"time_elapsed":238954,"internal_node_id":"0.0-19.0-0.0"},{"reward":50,"trial_type":"html-keyboard-response","trial_index":25,"time_elapsed":238955,"internal_node_id":"0.0-19.0-1.0"},{"penalty":250,"trial_type":"html-keyboard-response","trial_index":25,"time_elapsed":238955,"internal_node_id":"0.0-19.0-1.0"},{"fined":false,"trial_type":"html-keyboard-response","trial_index":25,"time_elapsed":238955,"internal_node_id":"0.0-19.0-1.0"},{"rt":null,"stimulus":"<div style=\"background-color:#6dce98\"><h1 style=\"background-color:MediumSeaGreen\" >You earned 50 coins! Well done!</h1><div style=\"background-color:#6dce98\"><h1 style=\"background-color:MediumSeaGreen\" >Only 1450 left to go!</h1><img id=\"box\" src=\"img/prizes/coins.png\"></img><img id=\"box\" src=\"img/empty/redopenbox.png\"></img></div>","key_press":null,"trial_type":"html-keyboard-response","trial_index":25,"time_elapsed":241959,"internal_node_id":"0.0-19.0-1.0"},{"rt":572.3300000245217,"stimulus":"<p>Choose a box,</p>","button_pressed":3,"trial_type":"html-button-response","trial_index":26,"time_elapsed":242533,"internal_node_id":"0.0-19.1-0.1"},{"reward":50,"trial_type":"html-keyboard-response","trial_index":27,"time_elapsed":242534,"internal_node_id":"0.0-19.1-1.1"},{"penalty":250,"trial_type":"html-keyboard-response","trial_index":27,"time_elapsed":242534,"internal_node_id":"0.0-19.1-1.1"},{"fined":false,"trial_type":"html-keyboard-response","trial_index":27,"time_elapsed":242534,"internal_node_id":"0.0-19.1-1.1"},{"rt":null,"stimulus":"<div style=\"background-color:#6dce98\"><h1 style=\"background-color:MediumSeaGreen\" >You earned 50 coins! Well done!</h1><div style=\"background-color:#6dce98\"><h1 style=\"background-color:MediumSeaGreen\" >Only 1400 left to go!</h1><img id=\"box\" src=\"img/prizes/coins.png\"></img><img id=\"box\" src=\"img/empty/redopenbox.png\"></img></div>","key_press":null,"trial_type":"html-keyboard-response","trial_index":27,"time_elapsed":245550,"internal_node_id":"0.0-19.1-1.1"},{"rt":823.1400000222493,"stimulus":"<p>Choose a box,</p>","button_pressed":0,"trial_type":"html-button-response","trial_index":28,"time_elapsed":246374,"internal_node_id":"0.0-19.2-0.2"},{"reward":100,"trial_type":"html-keyboard-response","trial_index":29,"time_elapsed":246374,"internal_node_id":"0.0-19.2-1.2"},{"penalty":250,"trial_type":"html-keyboard-response","trial_index":29,"time_elapsed":246374,"internal_node_id":"0.0-19.2-1.2"},{"fined":false,"trial_type":"html-keyboard-response","trial_index":29,"time_elapsed":246374,"internal_node_id":"0.0-19.2-1.2"},{"rt":null,"stimulus":"<div style=\"background-color:#6dce98\"><h1 style=\"background-color:MediumSeaGreen\" >You earned 100 coins! Well done!</h1><div style=\"background-color:#6dce98\"><h1 style=\"background-color:MediumSeaGreen\" >Only 1300 left to go!</h1><img id=\"box\" src=\"img/prizes/coins2.png\"></img><img id=\"box\" src=\"img/empty/blueopenbox.png\"></img></div>","key_press":null,"trial_type":"html-keyboard-response","trial_index":29,"time_elapsed":249376,"internal_node_id":"0.0-19.2-1.2"},{"rt":817.7349999896251,"stimulus":"<p>Choose a box,</p>","button_pressed":0,"trial_type":"html-button-response","trial_index":30,"time_elapsed":250195,"internal_node_id":"0.0-19.3-0.3"},{"reward":100,"trial_type":"html-keyboard-response","trial_index":31,"time_elapsed":250195,"internal_node_id":"0.0-19.3-1.3"},{"penalty":250,"trial_type":"html-keyboard-response","trial_index":31,"time_elapsed":250195,"internal_node_id":"0.0-19.3-1.3"},{"fined":false,"trial_type":"html-keyboard-response","trial_index":31,"time_elapsed":250195,"internal_node_id":"0.0-19.3-1.3"},{"rt":null,"stimulus":"<div style=\"background-color:#6dce98\"><h1 style=\"background-color:MediumSeaGreen\" >You earned 100 coins! Well done!</h1><div style=\"background-color:#6dce98\"><h1 style=\"background-color:MediumSeaGreen\" >Only 1200 left to go!</h1><img id=\"box\" src=\"img/prizes/coins2.png\"></img><img id=\"box\" src=\"img/empty/blueopenbox.png\"></img></div>","key_press":null,"trial_type":"html-keyboard-response","trial_index":31,"time_elapsed":253197,"internal_node_id":"0.0-19.3-1.3"},{"rt":575.5250000220258,"stimulus":"<p>Choose a box,</p>","button_pressed":2,"trial_type":"html-button-response","trial_index":32,"time_elapsed":253774,"internal_node_id":"0.0-19.4-0.4"},{"reward":50,"trial_type":"html-keyboard-response","trial_index":33,"time_elapsed":253775,"internal_node_id":"0.0-19.4-1.4"},{"penalty":50,"trial_type":"html-keyboard-response","trial_index":33,"time_elapsed":253775,"internal_node_id":"0.0-19.4-1.4"},{"fined":false,"trial_type":"html-keyboard-response","trial_index":33,"time_elapsed":253775,"internal_node_id":"0.0-19.4-1.4"},{"rt":null,"stimulus":"<div style=\"background-color:#6dce98\"><h1 style=\"background-color:MediumSeaGreen\" >You earned 50 coins! Well done!</h1><div style=\"background-color:#6dce98\"><h1 style=\"background-color:MediumSeaGreen\" >Only 1150 left to go!</h1><img id=\"box\" src=\"img/prizes/coins.png\"></img><img id=\"box\" src=\"img/empty/purpleopenbox.png\"></img></div>","key_press":null,"trial_type":"html-keyboard-response","trial_index":33,"time_elapsed":256777,"internal_node_id":"0.0-19.4-1.4"},{"rt":750.0399999844376,"stimulus":"<p>Choose a box,</p>","button_pressed":1,"trial_type":"html-button-response","trial_index":34,"time_elapsed":257528,"internal_node_id":"0.0-19.5-0.5"},{"reward":100,"trial_type":"html-keyboard-response","trial_index":35,"time_elapsed":257528,"internal_node_id":"0.0-19.5-1.5"},{"penalty":1250,"trial_type":"html-keyboard-response","trial_index":35,"time_elapsed":257529,"internal_node_id":"0.0-19.5-1.5"},{"fined":false,"trial_type":"html-keyboard-response","trial_index":35,"time_elapsed":257529,"internal_node_id":"0.0-19.5-1.5"},{"rt":null,"stimulus":"<div style=\"background-color:#6dce98\"><h1 style=\"background-color:MediumSeaGreen\" >You earned 100 coins! Well done!</h1><div style=\"background-color:#6dce98\"><h1 style=\"background-color:MediumSeaGreen\" >Only 1050 left to go!</h1><img id=\"box\" src=\"img/prizes/coins2.png\"></img><img id=\"box\" src=\"img/empty/greenopenbox.png\"></img></div>","key_press":null,"trial_type":"html-keyboard-response","trial_index":35,"time_elapsed":260532,"internal_node_id":"0.0-19.5-1.5"},{"rt":545.7699999969918,"stimulus":"<p>Choose a box,</p>","button_pressed":3,"trial_type":"html-button-response","trial_index":36,"time_elapsed":261079,"internal_node_id":"0.0-19.6-0.6"},{"reward":50,"trial_type":"html-keyboard-response","trial_index":37,"time_elapsed":261079,"internal_node_id":"0.0-19.6-1.6"},{"penalty":250,"trial_type":"html-keyboard-response","trial_index":37,"time_elapsed":261079,"internal_node_id":"0.0-19.6-1.6"},{"fined":false,"trial_type":"html-keyboard-response","trial_index":37,"time_elapsed":261079,"internal_node_id":"0.0-19.6-1.6"},{"rt":null,"stimulus":"<div style=\"background-color:#6dce98\"><h1 style=\"background-color:MediumSeaGreen\" >You earned 50 coins! Well done!</h1><div style=\"background-color:#6dce98\"><h1 style=\"background-color:MediumSeaGreen\" >Only 1000 left to go!</h1><img id=\"box\" src=\"img/prizes/coins.png\"></img><img id=\"box\" src=\"img/empty/redopenbox.png\"></img></div>","key_press":null,"trial_type":"html-keyboard-response","trial_index":37,"time_elapsed":264096,"internal_node_id":"0.0-19.6-1.6"},{"rt":251.9600000232458,"stimulus":"<p>Choose a box,</p>","button_pressed":1,"trial_type":"html-button-response","trial_index":38,"time_elapsed":264350,"internal_node_id":"0.0-19.7-0.7"},{"reward":100,"trial_type":"html-keyboard-response","trial_index":39,"time_elapsed":264350,"internal_node_id":"0.0-19.7-1.7"},{"penalty":1250,"trial_type":"html-keyboard-response","trial_index":39,"time_elapsed":264350,"internal_node_id":"0.0-19.7-1.7"},{"fined":false,"trial_type":"html-keyboard-response","trial_index":39,"time_elapsed":264350,"internal_node_id":"0.0-19.7-1.7"},{"rt":null,"stimulus":"<div style=\"background-color:#6dce98\"><h1 style=\"background-color:MediumSeaGreen\" >You earned 100 coins! Well done!</h1><div style=\"background-color:#6dce98\"><h1 style=\"background-color:MediumSeaGreen\" >Only 900 left to go!</h1><img id=\"box\" src=\"img/prizes/coins2.png\"></img><img id=\"box\" src=\"img/empty/greenopenbox.png\"></img></div>","key_press":null,"trial_type":"html-keyboard-response","trial_index":39,"time_elapsed":267355,"internal_node_id":"0.0-19.7-1.7"},{"rt":157.8250000020489,"stimulus":"<p>Choose a box,</p>","button_pressed":1,"trial_type":"html-button-response","trial_index":40,"time_elapsed":267515,"internal_node_id":"0.0-19.8-0.8"},{"reward":100,"trial_type":"html-keyboard-response","trial_index":41,"time_elapsed":267515,"internal_node_id":"0.0-19.8-1.8"},{"penalty":1250,"trial_type":"html-keyboard-response","trial_index":41,"time_elapsed":267515,"internal_node_id":"0.0-19.8-1.8"},{"fined":false,"trial_type":"html-keyboard-response","trial_index":41,"time_elapsed":267515,"internal_node_id":"0.0-19.8-1.8"},{"rt":null,"stimulus":"<div style=\"background-color:#6dce98\"><h1 style=\"background-color:MediumSeaGreen\" >You earned 100 coins! Well done!</h1><div style=\"background-color:#6dce98\"><h1 style=\"background-color:MediumSeaGreen\" >Only 800 left to go!</h1><img id=\"box\" src=\"img/prizes/coins2.png\"></img><img id=\"box\" src=\"img/empty/greenopenbox.png\"></img></div>","key_press":null,"trial_type":"html-keyboard-response","trial_index":41,"time_elapsed":270532,"internal_node_id":"0.0-19.8-1.8"},{"rt":98.00500000710599,"stimulus":"<p>Choose a box,</p>","button_pressed":1,"trial_type":"html-button-response","trial_index":42,"time_elapsed":270632,"internal_node_id":"0.0-19.9-0.9"},{"reward":100,"trial_type":"html-keyboard-response","trial_index":43,"time_elapsed":270632,"internal_node_id":"0.0-19.9-1.9"},{"penalty":1250,"trial_type":"html-keyboard-response","trial_index":43,"time_elapsed":270632,"internal_node_id":"0.0-19.9-1.9"},{"fined":false,"trial_type":"html-keyboard-response","trial_index":43,"time_elapsed":270632,"internal_node_id":"0.0-19.9-1.9"},{"rt":null,"stimulus":"<div style=\"background-color:#6dce98\"><h1 style=\"background-color:MediumSeaGreen\" >You earned 100 coins! Well done!</h1><div style=\"background-color:#6dce98\"><h1 style=\"background-color:MediumSeaGreen\" >Only 700 left to go!</h1><img id=\"box\" src=\"img/prizes/coins2.png\"></img><img id=\"box\" src=\"img/empty/greenopenbox.png\"></img></div>","key_press":null,"trial_type":"html-keyboard-response","trial_index":43,"time_elapsed":273648,"internal_node_id":"0.0-19.9-1.9"},{"rt":77.92999999946915,"stimulus":"<p>Choose a box,</p>","button_pressed":1,"trial_type":"html-button-response","trial_index":44,"time_elapsed":273728,"internal_node_id":"0.0-19.10-0.10"},{"reward":100,"trial_type":"html-keyboard-response","trial_index":45,"time_elapsed":273728,"internal_node_id":"0.0-19.10-1.10"},{"penalty":1250,"trial_type":"html-keyboard-response","trial_index":45,"time_elapsed":273728,"internal_node_id":"0.0-19.10-1.10"},{"fined":false,"trial_type":"html-keyboard-response","trial_index":45,"time_elapsed":273728,"internal_node_id":"0.0-19.10-1.10"},{"rt":null,"stimulus":"<div style=\"background-color:#6dce98\"><h1 style=\"background-color:MediumSeaGreen\" >You earned 100 coins! Well done!</h1><div style=\"background-color:#6dce98\"><h1 style=\"background-color:MediumSeaGreen\" >Only 600 left to go!</h1><img id=\"box\" src=\"img/prizes/coins2.png\"></img><img id=\"box\" src=\"img/empty/greenopenbox.png\"></img></div>","key_press":null,"trial_type":"html-keyboard-response","trial_index":45,"time_elapsed":276739,"internal_node_id":"0.0-19.10-1.10"},{"rt":259.35999999637716,"stimulus":"<p>Choose a box,</p>","button_pressed":1,"trial_type":"html-button-response","trial_index":46,"time_elapsed":276999,"internal_node_id":"0.0-19.11-0.11"},{"reward":100,"trial_type":"html-keyboard-response","trial_index":47,"time_elapsed":277000,"internal_node_id":"0.0-19.11-1.11"},{"penalty":1250,"trial_type":"html-keyboard-response","trial_index":47,"time_elapsed":277000,"internal_node_id":"0.0-19.11-1.11"},{"fined":false,"trial_type":"html-keyboard-response","trial_index":47,"time_elapsed":277000,"internal_node_id":"0.0-19.11-1.11"},{"rt":null,"stimulus":"<div style=\"background-color:#6dce98\"><h1 style=\"background-color:MediumSeaGreen\" >You earned 100 coins! Well done!</h1><div style=\"background-color:#6dce98\"><h1 style=\"background-color:MediumSeaGreen\" >Only 500 left to go!</h1><img id=\"box\" src=\"img/prizes/coins2.png\"></img><img id=\"box\" src=\"img/empty/greenopenbox.png\"></img></div>","key_press":null,"trial_type":"html-keyboard-response","trial_index":47,"time_elapsed":280015,"internal_node_id":"0.0-19.11-1.11"},{"rt":225.25000001769513,"stimulus":"<p>Choose a box,</p>","button_pressed":1,"trial_type":"html-button-response","trial_index":48,"time_elapsed":280241,"internal_node_id":"0.0-19.12-0.12"},{"reward":100,"trial_type":"html-keyboard-response","trial_index":49,"time_elapsed":280242,"internal_node_id":"0.0-19.12-1.12"},{"penalty":1250,"trial_type":"html-keyboard-response","trial_index":49,"time_elapsed":280242,"internal_node_id":"0.0-19.12-1.12"},{"fined":false,"trial_type":"html-keyboard-response","trial_index":49,"time_elapsed":280242,"internal_node_id":"0.0-19.12-1.12"},{"rt":null,"stimulus":"<div style=\"background-color:#6dce98\"><h1 style=\"background-color:MediumSeaGreen\" >You earned 100 coins! Well done!</h1><div style=\"background-color:#6dce98\"><h1 style=\"background-color:MediumSeaGreen\" >Only 400 left to go!</h1><img id=\"box\" src=\"img/prizes/coins2.png\"></img><img id=\"box\" src=\"img/empty/greenopenbox.png\"></img></div>","key_press":null,"trial_type":"html-keyboard-response","trial_index":49,"time_elapsed":283249,"internal_node_id":"0.0-19.12-1.12"},{"rt":87.43499999400228,"stimulus":"<p>Choose a box,</p>","button_pressed":1,"trial_type":"html-button-response","trial_index":50,"time_elapsed":283338,"internal_node_id":"0.0-19.13-0.13"},{"reward":100,"trial_type":"html-keyboard-response","trial_index":51,"time_elapsed":283338,"internal_node_id":"0.0-19.13-1.13"},{"penalty":1250,"trial_type":"html-keyboard-response","trial_index":51,"time_elapsed":283338,"internal_node_id":"0.0-19.13-1.13"},{"fined":false,"trial_type":"html-keyboard-response","trial_index":51,"time_elapsed":283338,"internal_node_id":"0.0-19.13-1.13"},{"rt":null,"stimulus":"<div style=\"background-color:#6dce98\"><h1 style=\"background-color:MediumSeaGreen\" >You earned 100 coins! Well done!</h1><div style=\"background-color:#6dce98\"><h1 style=\"background-color:MediumSeaGreen\" >Only 300 left to go!</h1><img id=\"box\" src=\"img/prizes/coins2.png\"></img><img id=\"box\" src=\"img/empty/greenopenbox.png\"></img></div>","key_press":null,"trial_type":"html-keyboard-response","trial_index":51,"time_elapsed":286345,"internal_node_id":"0.0-19.13-1.13"},{"rt":85.75500000733882,"stimulus":"<p>Choose a box,</p>","button_pressed":1,"trial_type":"html-button-response","trial_index":52,"time_elapsed":286434,"internal_node_id":"0.0-19.14-0.14"},{"reward":100,"trial_type":"html-keyboard-response","trial_index":53,"time_elapsed":286434,"internal_node_id":"0.0-19.14-1.14"},{"penalty":1250,"trial_type":"html-keyboard-response","trial_index":53,"time_elapsed":286434,"internal_node_id":"0.0-19.14-1.14"},{"fined":false,"trial_type":"html-keyboard-response","trial_index":53,"time_elapsed":286434,"internal_node_id":"0.0-19.14-1.14"},{"rt":null,"stimulus":"<div style=\"background-color:#6dce98\"><h1 style=\"background-color:MediumSeaGreen\" >You earned 100 coins! Well done!</h1><div style=\"background-color:#6dce98\"><h1 style=\"background-color:MediumSeaGreen\" >Only 200 left to go!</h1><img id=\"box\" src=\"img/prizes/coins2.png\"></img><img id=\"box\" src=\"img/empty/greenopenbox.png\"></img></div>","key_press":null,"trial_type":"html-keyboard-response","trial_index":53,"time_elapsed":289446,"internal_node_id":"0.0-19.14-1.14"},{"rt":298.1149999832269,"stimulus":"<p>Choose a box,</p>","button_pressed":1,"trial_type":"html-button-response","trial_index":54,"time_elapsed":289745,"internal_node_id":"0.0-19.15-0.15"},{"reward":100,"trial_type":"html-keyboard-response","trial_index":55,"time_elapsed":289747,"internal_node_id":"0.0-19.15-1.15"},{"penalty":1250,"trial_type":"html-keyboard-response","trial_index":55,"time_elapsed":289747,"internal_node_id":"0.0-19.15-1.15"},{"fined":false,"trial_type":"html-keyboard-response","trial_index":55,"time_elapsed":289747,"internal_node_id":"0.0-19.15-1.15"},{"rt":null,"stimulus":"<div style=\"background-color:#6dce98\"><h1 style=\"background-color:MediumSeaGreen\" >You earned 100 coins! Well done!</h1><div style=\"background-color:#6dce98\"><h1 style=\"background-color:MediumSeaGreen\" >Only 100 left to go!</h1><img id=\"box\" src=\"img/prizes/coins2.png\"></img><img id=\"box\" src=\"img/empty/greenopenbox.png\"></img></div>","key_press":null,"trial_type":"html-keyboard-response","trial_index":55,"time_elapsed":292752,"internal_node_id":"0.0-19.15-1.15"},{"rt":243.66000000736676,"stimulus":"<p>Choose a box,</p>","button_pressed":1,"trial_type":"html-button-response","trial_index":56,"time_elapsed":292997,"internal_node_id":"0.0-19.16-0.16"},{"reward":100,"trial_type":"html-keyboard-response","trial_index":57,"time_elapsed":292997,"internal_node_id":"0.0-19.16-1.16"},{"penalty":1250,"trial_type":"html-keyboard-response","trial_index":57,"time_elapsed":292997,"internal_node_id":"0.0-19.16-1.16"},{"fined":false,"trial_type":"html-keyboard-response","trial_index":57,"time_elapsed":292997,"internal_node_id":"0.0-19.16-1.16"},{"rt":null,"stimulus":"<div style=\"background-color:#6dce98\"><h1 style=\"background-color:MediumSeaGreen\" >You earned 100 coins! Well done!</h1><div style=\"background-color:#6dce98\"><h1 style=\"background-color:MediumSeaGreen\" >Only 0 left to go!</h1><img id=\"box\" src=\"img/prizes/coins2.png\"></img><img id=\"box\" src=\"img/empty/greenopenbox.png\"></img></div>","key_press":null,"trial_type":"html-keyboard-response","trial_index":57,"time_elapsed":296000,"internal_node_id":"0.0-19.16-1.16"},{"rt":22944.50500002131,"responses":"{\"Q0\":\"It was odd\",\"Q1\":\"test them all first\"}","trial_type":"survey-text","trial_index":58,"time_elapsed":318953,"internal_node_id":"0.0-20.0"}]