[{"view_history":"[{\"page_index\":0,\"viewing_time\":16319.55499999458},{\"page_index\":1,\"viewing_time\":5251.044999982696},{\"page_index\":2,\"viewing_time\":6398.879999993369},{\"page_index\":3,\"viewing_time\":4565.769999986514},{\"page_index\":4,\"viewing_time\":2510.2049999986775},{\"page_index\":5,\"viewing_time\":3497.7050000452437}]","rt":38544.264999974985,"trial_type":"instructions","trial_index":0,"time_elapsed":38546,"internal_node_id":"0.0-0.0"},{"rt":6381.9149999762885,"responses":"{\"Q0\":\"Yes\",\"Q1\":\"Yes\",\"Q2\":\"Yes\"}","question_order":"[0,1,2]","trial_type":"survey-multi-choice","trial_index":1,"time_elapsed":44930,"internal_node_id":"0.0-1.0-0.0"},{"rt":7645.1600000145845,"responses":"{\"Q0\":\"Yes\",\"Q1\":\"Yes\",\"Q2\":\"Yes\"}","question_order":"[0,1,2]","trial_type":"survey-multi-choice","trial_index":2,"time_elapsed":52578,"internal_node_id":"0.0-2.0-0.0"},{"rt":7870.459999947343,"responses":"{\"Q0\":\"6066de1b4e7581928c37eaed\"}","trial_type":"survey-text","trial_index":3,"time_elapsed":60452,"internal_node_id":"0.0-3.0"},{"rt":3840.005000005476,"responses":"{\"Q0\":\"Male\",\"Q1\":\"18-25\"}","question_order":"[0,1]","trial_type":"survey-multi-choice","trial_index":4,"time_elapsed":64293,"internal_node_id":"0.0-4.0"},{"rt":7589.009999996051,"responses":"{\"Q0\":\"\"}","trial_type":"survey-text","trial_index":5,"time_elapsed":71885,"internal_node_id":"0.0-5.0"},{"view_history":"[{\"page_index\":0,\"viewing_time\":2468.9000000362284}]","rt":2469.2200000281446,"trial_type":"instructions","trial_index":6,"time_elapsed":74354,"internal_node_id":"0.0-6.0"},{"rt":17777.16999995755,"responses":"{\"Interested\":1,\"Distressed\":2,\"Excited\":1,\"Upset\":3}","question_order":"[0,1,2,3]","trial_type":"survey-likert","trial_index":7,"time_elapsed":92134,"internal_node_id":"0.0-7.0"},{"rt":13521.37999999104,"responses":"{\"Strong\":1,\"Guilty\":0,\"Scared\":4,\"Hostile\":1}","question_order":"[0,1,2,3]","trial_type":"survey-likert","trial_index":8,"time_elapsed":105657,"internal_node_id":"0.0-8.0"},{"rt":9967.25000004517,"responses":"{\"Enthusiastic\":1,\"Proud\":1,\"Irritable\":0,\"Alert\":2}","question_order":"[0,1,2,3]","trial_type":"survey-likert","trial_index":9,"time_elapsed":115627,"internal_node_id":"0.0-9.0"},{"rt":7799.514999962412,"responses":"{\"Ashamed\":2,\"Inspired\":1,\"Nervous\":3,\"Determined\":2}","question_order":"[0,1,2,3]","trial_type":"survey-likert","trial_index":10,"time_elapsed":123428,"internal_node_id":"0.0-10.0"},{"rt":12359.095000021625,"responses":"{\"Attentive\":2,\"Jittery\":1,\"Active\":2,\"Afraid\":3}","question_order":"[0,1,2,3]","trial_type":"survey-likert","trial_index":11,"time_elapsed":135789,"internal_node_id":"0.0-11.0"},{"rt":12214.855000027455,"responses":"{\"Q0\":1,\"Q1\":2,\"Q2\":1,\"Q3\":1}","question_order":"[0,1,2,3]","trial_type":"survey-likert","trial_index":12,"time_elapsed":148006,"internal_node_id":"0.0-12.0"},{"rt":21834.55500000855,"responses":"{\"Q0\":1,\"Q1\":1,\"Q2\":1,\"Q3\":1}","question_order":"[0,1,2,3]","trial_type":"survey-likert","trial_index":13,"time_elapsed":169842,"internal_node_id":"0.0-13.0"},{"rt":7536.250000004657,"responses":"{\"Q0\":2,\"Q1\":2,\"Q2\":2,\"Q3\":2}","question_order":"[0,1,2,3]","trial_type":"survey-likert","trial_index":14,"time_elapsed":177381,"internal_node_id":"0.0-14.0"},{"rt":10948.629999998957,"responses":"{\"Q0\":1,\"Q1\":0,\"Q2\":1}","question_order":"[0,1,2]","trial_type":"survey-likert","trial_index":15,"time_elapsed":188331,"internal_node_id":"0.0-15.0"},{"view_history":"[{\"page_index\":0,\"viewing_time\":2125.095000024885},{\"page_index\":1,\"viewing_time\":8678.194999985863},{\"page_index\":2,\"viewing_time\":5513.970000029076}]","rt":16317.535000038333,"trial_type":"instructions","trial_index":16,"time_elapsed":204650,"internal_node_id":"0.0-16.0"},{"rt":1377.2999999928288,"stimulus":"<p>Choose a box,</p>","button_pressed":1,"trial_type":"html-button-response","trial_index":17,"time_elapsed":206030,"internal_node_id":"0.0-17.0-0.0"},{"reward":100,"trial_type":"html-keyboard-response","trial_index":18,"time_elapsed":206031,"internal_node_id":"0.0-17.0-1.0"},{"penalty":1250,"trial_type":"html-keyboard-response","trial_index":18,"time_elapsed":206031,"internal_node_id":"0.0-17.0-1.0"},{"fined":false,"trial_type":"html-keyboard-response","trial_index":18,"time_elapsed":206031,"internal_node_id":"0.0-17.0-1.0"},{"rt":null,"stimulus":"<div style=\"background-color:#6dce98\"><h1 style=\"background-color:MediumSeaGreen\" >You earned 100 coins! Well done!</h1><div style=\"background-color:#6dce98\"><h1 style=\"background-color:MediumSeaGreen\" >Only 1400 left to go!</h1><img id=\"box\" src=\"img/prizes/coins2.png\"></img><img id=\"box\" src=\"img/empty/greenopenbox.png\"></img></div>","key_press":null,"trial_type":"html-keyboard-response","trial_index":18,"time_elapsed":209036,"internal_node_id":"0.0-17.0-1.0"},{"rt":862.9899999941699,"stimulus":"<p>Choose a box,</p>","button_pressed":2,"trial_type":"html-button-response","trial_index":19,"time_elapsed":209902,"internal_node_id":"0.0-17.0-0.1"},{"reward":50,"trial_type":"html-keyboard-response","trial_index":20,"time_elapsed":209902,"internal_node_id":"0.0-17.0-1.1"},{"penalty":50,"trial_type":"html-keyboard-response","trial_index":20,"time_elapsed":209902,"internal_node_id":"0.0-17.0-1.1"},{"fined":false,"trial_type":"html-keyboard-response","trial_index":20,"time_elapsed":209902,"internal_node_id":"0.0-17.0-1.1"},{"rt":null,"stimulus":"<div style=\"background-color:#6dce98\"><h1 style=\"background-color:MediumSeaGreen\" >You earned 50 coins! Well done!</h1><div style=\"background-color:#6dce98\"><h1 style=\"background-color:MediumSeaGreen\" >Only 1350 left to go!</h1><img id=\"box\" src=\"img/prizes/coins.png\"></img><img id=\"box\" src=\"img/empty/purpleopenbox.png\"></img></div>","key_press":null,"trial_type":"html-keyboard-response","trial_index":20,"time_elapsed":212905,"internal_node_id":"0.0-17.0-1.1"},{"rt":1043.4449999593198,"stimulus":"<p>Choose a box,</p>","button_pressed":0,"trial_type":"html-button-response","trial_index":21,"time_elapsed":213950,"internal_node_id":"0.0-17.0-0.2"},{"reward":100,"trial_type":"html-keyboard-response","trial_index":22,"time_elapsed":213950,"internal_node_id":"0.0-17.0-1.2"},{"penalty":250,"trial_type":"html-keyboard-response","trial_index":22,"time_elapsed":213950,"internal_node_id":"0.0-17.0-1.2"},{"fined":true,"trial_type":"html-keyboard-response","trial_index":22,"time_elapsed":213950,"internal_node_id":"0.0-17.0-1.2"},{"rt":null,"stimulus":"<div style=\"background-color:#ff7157\"><h1 style=\"background-color:MediumSeaGreen\">You earned 100 coins</h1><h1 h1 style=\"background-color:Tomato\">but you have recieved a fine of 250 coins</h1><h1 style=\"background-color:Tomato\">Remember, you need to keep going until you have 3000 coins!</h1><img id=\"box\" src=\"img/prizes/250.png\"></img><img id=\"box\" src=\"img/sad/blueopenboxsadthumb.png\"></img></div>","key_press":null,"trial_type":"html-keyboard-response","trial_index":22,"time_elapsed":216952,"internal_node_id":"0.0-17.0-1.2"},{"view_history":"[{\"page_index\":0,\"viewing_time\":6313.044999958947}]","rt":6313.2949999999255,"trial_type":"instructions","trial_index":23,"time_elapsed":223266,"internal_node_id":"0.0-18.0"},{"rt":1011.1400000168942,"stimulus":"<p>Choose a box,</p>","button_pressed":3,"trial_type":"html-button-response","trial_index":24,"time_elapsed":224278,"internal_node_id":"0.0-19.0-0.0"},{"reward":50,"trial_type":"html-keyboard-response","trial_index":25,"time_elapsed":224279,"internal_node_id":"0.0-19.0-1.0"},{"penalty":250,"trial_type":"html-keyboard-response","trial_index":25,"time_elapsed":224279,"internal_node_id":"0.0-19.0-1.0"},{"fined":false,"trial_type":"html-keyboard-response","trial_index":25,"time_elapsed":224279,"internal_node_id":"0.0-19.0-1.0"},{"rt":null,"stimulus":"<div style=\"background-color:#6dce98\"><h1 style=\"background-color:MediumSeaGreen\" >You earned 50 coins! Well done!</h1><div style=\"background-color:#6dce98\"><h1 style=\"background-color:MediumSeaGreen\" >Only 1450 left to go!</h1><img id=\"box\" src=\"img/prizes/coins.png\"></img><img id=\"box\" src=\"img/empty/redopenbox.png\"></img></div>","key_press":null,"trial_type":"html-keyboard-response","trial_index":25,"time_elapsed":227280,"internal_node_id":"0.0-19.0-1.0"},{"rt":526.8100000103004,"stimulus":"<p>Choose a box,</p>","button_pressed":0,"trial_type":"html-button-response","trial_index":26,"time_elapsed":227808,"internal_node_id":"0.0-19.1-0.1"},{"reward":100,"trial_type":"html-keyboard-response","trial_index":27,"time_elapsed":227809,"internal_node_id":"0.0-19.1-1.1"},{"penalty":250,"trial_type":"html-keyboard-response","trial_index":27,"time_elapsed":227809,"internal_node_id":"0.0-19.1-1.1"},{"fined":true,"trial_type":"html-keyboard-response","trial_index":27,"time_elapsed":227809,"internal_node_id":"0.0-19.1-1.1"},{"rt":null,"stimulus":"<div style=\"background-color:#ff7157\"><h1 style=\"background-color:MediumSeaGreen\">You earned 100 coins</h1><h1 h1 style=\"background-color:Tomato\">but you have recieved a fine of 250 coins</h1><h1 style=\"background-color:Tomato\">Remember, you need to keep going until you have 3000 coins!</h1><img id=\"box\" src=\"img/prizes/250.png\"></img><img id=\"box\" src=\"img/sad/blueopenboxsadthumb.png\"></img></div>","key_press":null,"trial_type":"html-keyboard-response","trial_index":27,"time_elapsed":230811,"internal_node_id":"0.0-19.1-1.1"},{"rt":828.9249999797903,"stimulus":"<p>Choose a box,</p>","button_pressed":1,"trial_type":"html-button-response","trial_index":28,"time_elapsed":231641,"internal_node_id":"0.0-19.2-0.2"},{"reward":100,"trial_type":"html-keyboard-response","trial_index":29,"time_elapsed":231641,"internal_node_id":"0.0-19.2-1.2"},{"penalty":1250,"trial_type":"html-keyboard-response","trial_index":29,"time_elapsed":231641,"internal_node_id":"0.0-19.2-1.2"},{"fined":false,"trial_type":"html-keyboard-response","trial_index":29,"time_elapsed":231641,"internal_node_id":"0.0-19.2-1.2"},{"rt":null,"stimulus":"<div style=\"background-color:#6dce98\"><h1 style=\"background-color:MediumSeaGreen\" >You earned 100 coins! Well done!</h1><div style=\"background-color:#6dce98\"><h1 style=\"background-color:MediumSeaGreen\" >Only 1500 left to go!</h1><img id=\"box\" src=\"img/prizes/coins2.png\"></img><img id=\"box\" src=\"img/empty/greenopenbox.png\"></img></div>","key_press":null,"trial_type":"html-keyboard-response","trial_index":29,"time_elapsed":234643,"internal_node_id":"0.0-19.2-1.2"},{"rt":1036.6050000302494,"stimulus":"<p>Choose a box,</p>","button_pressed":1,"trial_type":"html-button-response","trial_index":30,"time_elapsed":235681,"internal_node_id":"0.0-19.3-0.3"},{"reward":100,"trial_type":"html-keyboard-response","trial_index":31,"time_elapsed":235681,"internal_node_id":"0.0-19.3-1.3"},{"penalty":1250,"trial_type":"html-keyboard-response","trial_index":31,"time_elapsed":235681,"internal_node_id":"0.0-19.3-1.3"},{"fined":false,"trial_type":"html-keyboard-response","trial_index":31,"time_elapsed":235681,"internal_node_id":"0.0-19.3-1.3"},{"rt":null,"stimulus":"<div style=\"background-color:#6dce98\"><h1 style=\"background-color:MediumSeaGreen\" >You earned 100 coins! Well done!</h1><div style=\"background-color:#6dce98\"><h1 style=\"background-color:MediumSeaGreen\" >Only 1400 left to go!</h1><img id=\"box\" src=\"img/prizes/coins2.png\"></img><img id=\"box\" src=\"img/empty/greenopenbox.png\"></img></div>","key_press":null,"trial_type":"html-keyboard-response","trial_index":31,"time_elapsed":238683,"internal_node_id":"0.0-19.3-1.3"},{"rt":1339.2400000011548,"stimulus":"<p>Choose a box,</p>","button_pressed":1,"trial_type":"html-button-response","trial_index":32,"time_elapsed":240024,"internal_node_id":"0.0-19.4-0.4"},{"reward":100,"trial_type":"html-keyboard-response","trial_index":33,"time_elapsed":240024,"internal_node_id":"0.0-19.4-1.4"},{"penalty":1250,"trial_type":"html-keyboard-response","trial_index":33,"time_elapsed":240024,"internal_node_id":"0.0-19.4-1.4"},{"fined":false,"trial_type":"html-keyboard-response","trial_index":33,"time_elapsed":240024,"internal_node_id":"0.0-19.4-1.4"},{"rt":null,"stimulus":"<div style=\"background-color:#6dce98\"><h1 style=\"background-color:MediumSeaGreen\" >You earned 100 coins! Well done!</h1><div style=\"background-color:#6dce98\"><h1 style=\"background-color:MediumSeaGreen\" >Only 1300 left to go!</h1><img id=\"box\" src=\"img/prizes/coins2.png\"></img><img id=\"box\" src=\"img/empty/greenopenbox.png\"></img></div>","key_press":null,"trial_type":"html-keyboard-response","trial_index":33,"time_elapsed":243026,"internal_node_id":"0.0-19.4-1.4"},{"rt":1124.420000007376,"stimulus":"<p>Choose a box,</p>","button_pressed":2,"trial_type":"html-button-response","trial_index":34,"time_elapsed":244152,"internal_node_id":"0.0-19.5-0.5"},{"reward":50,"trial_type":"html-keyboard-response","trial_index":35,"time_elapsed":244152,"internal_node_id":"0.0-19.5-1.5"},{"penalty":50,"trial_type":"html-keyboard-response","trial_index":35,"time_elapsed":244152,"internal_node_id":"0.0-19.5-1.5"},{"fined":true,"trial_type":"html-keyboard-response","trial_index":35,"time_elapsed":244152,"internal_node_id":"0.0-19.5-1.5"},{"rt":null,"stimulus":"<div style=\"background-color:#ff7157\"><h1 style=\"background-color:MediumSeaGreen\">You earned 50 coins</h1><h1 h1 style=\"background-color:Tomato\">but you have recieved a fine of 50 coins</h1><h1 style=\"background-color:Tomato\">Remember, you need to keep going until you have 3000 coins!</h1><img id=\"box\" src=\"img/prizes/50.png\"></img><img id=\"box\" src=\"img/sad/purpleopenboxsadthumb.png\"></img></div>","key_press":null,"trial_type":"html-keyboard-response","trial_index":35,"time_elapsed":247155,"internal_node_id":"0.0-19.5-1.5"},{"rt":891.7099999962375,"stimulus":"<p>Choose a box,</p>","button_pressed":1,"trial_type":"html-button-response","trial_index":36,"time_elapsed":248048,"internal_node_id":"0.0-19.6-0.6"},{"reward":100,"trial_type":"html-keyboard-response","trial_index":37,"time_elapsed":248048,"internal_node_id":"0.0-19.6-1.6"},{"penalty":1250,"trial_type":"html-keyboard-response","trial_index":37,"time_elapsed":248048,"internal_node_id":"0.0-19.6-1.6"},{"fined":false,"trial_type":"html-keyboard-response","trial_index":37,"time_elapsed":248048,"internal_node_id":"0.0-19.6-1.6"},{"rt":null,"stimulus":"<div style=\"background-color:#6dce98\"><h1 style=\"background-color:MediumSeaGreen\" >You earned 100 coins! Well done!</h1><div style=\"background-color:#6dce98\"><h1 style=\"background-color:MediumSeaGreen\" >Only 1200 left to go!</h1><img id=\"box\" src=\"img/prizes/coins2.png\"></img><img id=\"box\" src=\"img/empty/greenopenbox.png\"></img></div>","key_press":null,"trial_type":"html-keyboard-response","trial_index":37,"time_elapsed":251054,"internal_node_id":"0.0-19.6-1.6"},{"rt":243.18499997025356,"stimulus":"<p>Choose a box,</p>","button_pressed":1,"trial_type":"html-button-response","trial_index":38,"time_elapsed":251300,"internal_node_id":"0.0-19.7-0.7"},{"reward":100,"trial_type":"html-keyboard-response","trial_index":39,"time_elapsed":251301,"internal_node_id":"0.0-19.7-1.7"},{"penalty":1250,"trial_type":"html-keyboard-response","trial_index":39,"time_elapsed":251301,"internal_node_id":"0.0-19.7-1.7"},{"fined":false,"trial_type":"html-keyboard-response","trial_index":39,"time_elapsed":251301,"internal_node_id":"0.0-19.7-1.7"},{"rt":null,"stimulus":"<div style=\"background-color:#6dce98\"><h1 style=\"background-color:MediumSeaGreen\" >You earned 100 coins! Well done!</h1><div style=\"background-color:#6dce98\"><h1 style=\"background-color:MediumSeaGreen\" >Only 1100 left to go!</h1><img id=\"box\" src=\"img/prizes/coins2.png\"></img><img id=\"box\" src=\"img/empty/greenopenbox.png\"></img></div>","key_press":null,"trial_type":"html-keyboard-response","trial_index":39,"time_elapsed":254302,"internal_node_id":"0.0-19.7-1.7"},{"rt":471.1849999730475,"stimulus":"<p>Choose a box,</p>","button_pressed":1,"trial_type":"html-button-response","trial_index":40,"time_elapsed":254775,"internal_node_id":"0.0-19.8-0.8"},{"reward":100,"trial_type":"html-keyboard-response","trial_index":41,"time_elapsed":254775,"internal_node_id":"0.0-19.8-1.8"},{"penalty":1250,"trial_type":"html-keyboard-response","trial_index":41,"time_elapsed":254775,"internal_node_id":"0.0-19.8-1.8"},{"fined":false,"trial_type":"html-keyboard-response","trial_index":41,"time_elapsed":254775,"internal_node_id":"0.0-19.8-1.8"},{"rt":null,"stimulus":"<div style=\"background-color:#6dce98\"><h1 style=\"background-color:MediumSeaGreen\" >You earned 100 coins! Well done!</h1><div style=\"background-color:#6dce98\"><h1 style=\"background-color:MediumSeaGreen\" >Only 1000 left to go!</h1><img id=\"box\" src=\"img/prizes/coins2.png\"></img><img id=\"box\" src=\"img/empty/greenopenbox.png\"></img></div>","key_press":null,"trial_type":"html-keyboard-response","trial_index":41,"time_elapsed":257777,"internal_node_id":"0.0-19.8-1.8"},{"rt":432.12999997194856,"stimulus":"<p>Choose a box,</p>","button_pressed":1,"trial_type":"html-button-response","trial_index":42,"time_elapsed":258210,"internal_node_id":"0.0-19.9-0.9"},{"reward":100,"trial_type":"html-keyboard-response","trial_index":43,"time_elapsed":258210,"internal_node_id":"0.0-19.9-1.9"},{"penalty":1250,"trial_type":"html-keyboard-response","trial_index":43,"time_elapsed":258210,"internal_node_id":"0.0-19.9-1.9"},{"fined":false,"trial_type":"html-keyboard-response","trial_index":43,"time_elapsed":258210,"internal_node_id":"0.0-19.9-1.9"},{"rt":null,"stimulus":"<div style=\"background-color:#6dce98\"><h1 style=\"background-color:MediumSeaGreen\" >You earned 100 coins! Well done!</h1><div style=\"background-color:#6dce98\"><h1 style=\"background-color:MediumSeaGreen\" >Only 900 left to go!</h1><img id=\"box\" src=\"img/prizes/coins2.png\"></img><img id=\"box\" src=\"img/empty/greenopenbox.png\"></img></div>","key_press":null,"trial_type":"html-keyboard-response","trial_index":43,"time_elapsed":261217,"internal_node_id":"0.0-19.9-1.9"},{"rt":226.32999997586012,"stimulus":"<p>Choose a box,</p>","button_pressed":1,"trial_type":"html-button-response","trial_index":44,"time_elapsed":261445,"internal_node_id":"0.0-19.10-0.10"},{"reward":100,"trial_type":"html-keyboard-response","trial_index":45,"time_elapsed":261445,"internal_node_id":"0.0-19.10-1.10"},{"penalty":1250,"trial_type":"html-keyboard-response","trial_index":45,"time_elapsed":261445,"internal_node_id":"0.0-19.10-1.10"},{"fined":false,"trial_type":"html-keyboard-response","trial_index":45,"time_elapsed":261445,"internal_node_id":"0.0-19.10-1.10"},{"rt":null,"stimulus":"<div style=\"background-color:#6dce98\"><h1 style=\"background-color:MediumSeaGreen\" >You earned 100 coins! Well done!</h1><div style=\"background-color:#6dce98\"><h1 style=\"background-color:MediumSeaGreen\" >Only 800 left to go!</h1><img id=\"box\" src=\"img/prizes/coins2.png\"></img><img id=\"box\" src=\"img/empty/greenopenbox.png\"></img></div>","key_press":null,"trial_type":"html-keyboard-response","trial_index":45,"time_elapsed":264447,"internal_node_id":"0.0-19.10-1.10"},{"rt":383.449999964796,"stimulus":"<p>Choose a box,</p>","button_pressed":1,"trial_type":"html-button-response","trial_index":46,"time_elapsed":264832,"internal_node_id":"0.0-19.11-0.11"},{"reward":100,"trial_type":"html-keyboard-response","trial_index":47,"time_elapsed":264832,"internal_node_id":"0.0-19.11-1.11"},{"penalty":1250,"trial_type":"html-keyboard-response","trial_index":47,"time_elapsed":264832,"internal_node_id":"0.0-19.11-1.11"},{"fined":true,"trial_type":"html-keyboard-response","trial_index":47,"time_elapsed":264833,"internal_node_id":"0.0-19.11-1.11"},{"rt":null,"stimulus":"<div style=\"background-color:#ff7157\"><h1 style=\"background-color:MediumSeaGreen\">You earned 100 coins</h1><h1 h1 style=\"background-color:Tomato\">but you have recieved a fine of 1250 coins</h1><h1 style=\"background-color:Tomato\">Remember, you need to keep going until you have 3000 coins!</h1><img id=\"box\" src=\"img/prizes/1250.png\"></img><img id=\"box\" src=\"img/sad/greenopenboxsadthumb.png\"></img></div>","key_press":null,"trial_type":"html-keyboard-response","trial_index":47,"time_elapsed":267839,"internal_node_id":"0.0-19.11-1.11"},{"rt":3088.675000006333,"stimulus":"<p>Choose a box,</p>","button_pressed":0,"trial_type":"html-button-response","trial_index":48,"time_elapsed":270929,"internal_node_id":"0.0-19.12-0.12"},{"reward":100,"trial_type":"html-keyboard-response","trial_index":49,"time_elapsed":270929,"internal_node_id":"0.0-19.12-1.12"},{"penalty":250,"trial_type":"html-keyboard-response","trial_index":49,"time_elapsed":270929,"internal_node_id":"0.0-19.12-1.12"},{"fined":true,"trial_type":"html-keyboard-response","trial_index":49,"time_elapsed":270929,"internal_node_id":"0.0-19.12-1.12"},{"rt":null,"stimulus":"<div style=\"background-color:#ff7157\"><h1 style=\"background-color:MediumSeaGreen\">You earned 100 coins</h1><h1 h1 style=\"background-color:Tomato\">but you have recieved a fine of 250 coins</h1><h1 style=\"background-color:Tomato\">Remember, you need to keep going until you have 3000 coins!</h1><img id=\"box\" src=\"img/prizes/250.png\"></img><img id=\"box\" src=\"img/sad/blueopenboxsadthumb.png\"></img></div>","key_press":null,"trial_type":"html-keyboard-response","trial_index":49,"time_elapsed":273936,"internal_node_id":"0.0-19.12-1.12"},{"rt":823.8600000040606,"stimulus":"<p>Choose a box,</p>","button_pressed":1,"trial_type":"html-button-response","trial_index":50,"time_elapsed":274761,"internal_node_id":"0.0-19.13-0.13"},{"reward":100,"trial_type":"html-keyboard-response","trial_index":51,"time_elapsed":274762,"internal_node_id":"0.0-19.13-1.13"},{"penalty":1250,"trial_type":"html-keyboard-response","trial_index":51,"time_elapsed":274762,"internal_node_id":"0.0-19.13-1.13"},{"fined":false,"trial_type":"html-keyboard-response","trial_index":51,"time_elapsed":274762,"internal_node_id":"0.0-19.13-1.13"},{"rt":null,"stimulus":"<div style=\"background-color:#6dce98\"><h1 style=\"background-color:MediumSeaGreen\" >You earned 100 coins! Well done!</h1><div style=\"background-color:#6dce98\"><h1 style=\"background-color:MediumSeaGreen\" >Only 2000 left to go!</h1><img id=\"box\" src=\"img/prizes/coins2.png\"></img><img id=\"box\" src=\"img/empty/greenopenbox.png\"></img></div>","key_press":null,"trial_type":"html-keyboard-response","trial_index":51,"time_elapsed":277763,"internal_node_id":"0.0-19.13-1.13"},{"rt":383.815000008326,"stimulus":"<p>Choose a box,</p>","button_pressed":1,"trial_type":"html-button-response","trial_index":52,"time_elapsed":278149,"internal_node_id":"0.0-19.14-0.14"},{"reward":100,"trial_type":"html-keyboard-response","trial_index":53,"time_elapsed":278149,"internal_node_id":"0.0-19.14-1.14"},{"penalty":1250,"trial_type":"html-keyboard-response","trial_index":53,"time_elapsed":278149,"internal_node_id":"0.0-19.14-1.14"},{"fined":false,"trial_type":"html-keyboard-response","trial_index":53,"time_elapsed":278149,"internal_node_id":"0.0-19.14-1.14"},{"rt":null,"stimulus":"<div style=\"background-color:#6dce98\"><h1 style=\"background-color:MediumSeaGreen\" >You earned 100 coins! Well done!</h1><div style=\"background-color:#6dce98\"><h1 style=\"background-color:MediumSeaGreen\" >Only 1900 left to go!</h1><img id=\"box\" src=\"img/prizes/coins2.png\"></img><img id=\"box\" src=\"img/empty/greenopenbox.png\"></img></div>","key_press":null,"trial_type":"html-keyboard-response","trial_index":53,"time_elapsed":281150,"internal_node_id":"0.0-19.14-1.14"},{"rt":375.56000001495704,"stimulus":"<p>Choose a box,</p>","button_pressed":1,"trial_type":"html-button-response","trial_index":54,"time_elapsed":281527,"internal_node_id":"0.0-19.15-0.15"},{"reward":100,"trial_type":"html-keyboard-response","trial_index":55,"time_elapsed":281529,"internal_node_id":"0.0-19.15-1.15"},{"penalty":1250,"trial_type":"html-keyboard-response","trial_index":55,"time_elapsed":281529,"internal_node_id":"0.0-19.15-1.15"},{"fined":false,"trial_type":"html-keyboard-response","trial_index":55,"time_elapsed":281529,"internal_node_id":"0.0-19.15-1.15"},{"rt":null,"stimulus":"<div style=\"background-color:#6dce98\"><h1 style=\"background-color:MediumSeaGreen\" >You earned 100 coins! Well done!</h1><div style=\"background-color:#6dce98\"><h1 style=\"background-color:MediumSeaGreen\" >Only 1800 left to go!</h1><img id=\"box\" src=\"img/prizes/coins2.png\"></img><img id=\"box\" src=\"img/empty/greenopenbox.png\"></img></div>","key_press":null,"trial_type":"html-keyboard-response","trial_index":55,"time_elapsed":284531,"internal_node_id":"0.0-19.15-1.15"},{"rt":469.44999997504056,"stimulus":"<p>Choose a box,</p>","button_pressed":1,"trial_type":"html-button-response","trial_index":56,"time_elapsed":285001,"internal_node_id":"0.0-19.16-0.16"},{"reward":100,"trial_type":"html-keyboard-response","trial_index":57,"time_elapsed":285002,"internal_node_id":"0.0-19.16-1.16"},{"penalty":1250,"trial_type":"html-keyboard-response","trial_index":57,"time_elapsed":285002,"internal_node_id":"0.0-19.16-1.16"},{"fined":false,"trial_type":"html-keyboard-response","trial_index":57,"time_elapsed":285002,"internal_node_id":"0.0-19.16-1.16"},{"rt":null,"stimulus":"<div style=\"background-color:#6dce98\"><h1 style=\"background-color:MediumSeaGreen\" >You earned 100 coins! Well done!</h1><div style=\"background-color:#6dce98\"><h1 style=\"background-color:MediumSeaGreen\" >Only 1700 left to go!</h1><img id=\"box\" src=\"img/prizes/coins2.png\"></img><img id=\"box\" src=\"img/empty/greenopenbox.png\"></img></div>","key_press":null,"trial_type":"html-keyboard-response","trial_index":57,"time_elapsed":288003,"internal_node_id":"0.0-19.16-1.16"},{"rt":455.5599999730475,"stimulus":"<p>Choose a box,</p>","button_pressed":1,"trial_type":"html-button-response","trial_index":58,"time_elapsed":288461,"internal_node_id":"0.0-19.17-0.17"},{"reward":100,"trial_type":"html-keyboard-response","trial_index":59,"time_elapsed":288461,"internal_node_id":"0.0-19.17-1.17"},{"penalty":1250,"trial_type":"html-keyboard-response","trial_index":59,"time_elapsed":288461,"internal_node_id":"0.0-19.17-1.17"},{"fined":false,"trial_type":"html-keyboard-response","trial_index":59,"time_elapsed":288461,"internal_node_id":"0.0-19.17-1.17"},{"rt":null,"stimulus":"<div style=\"background-color:#6dce98\"><h1 style=\"background-color:MediumSeaGreen\" >You earned 100 coins! Well done!</h1><div style=\"background-color:#6dce98\"><h1 style=\"background-color:MediumSeaGreen\" >Only 1600 left to go!</h1><img id=\"box\" src=\"img/prizes/coins2.png\"></img><img id=\"box\" src=\"img/empty/greenopenbox.png\"></img></div>","key_press":null,"trial_type":"html-keyboard-response","trial_index":59,"time_elapsed":291463,"internal_node_id":"0.0-19.17-1.17"},{"rt":487.1449999627657,"stimulus":"<p>Choose a box,</p>","button_pressed":1,"trial_type":"html-button-response","trial_index":60,"time_elapsed":291951,"internal_node_id":"0.0-19.18-0.18"},{"reward":100,"trial_type":"html-keyboard-response","trial_index":61,"time_elapsed":291952,"internal_node_id":"0.0-19.18-1.18"},{"penalty":1250,"trial_type":"html-keyboard-response","trial_index":61,"time_elapsed":291952,"internal_node_id":"0.0-19.18-1.18"},{"fined":false,"trial_type":"html-keyboard-response","trial_index":61,"time_elapsed":291952,"internal_node_id":"0.0-19.18-1.18"},{"rt":null,"stimulus":"<div style=\"background-color:#6dce98\"><h1 style=\"background-color:MediumSeaGreen\" >You earned 100 coins! Well done!</h1><div style=\"background-color:#6dce98\"><h1 style=\"background-color:MediumSeaGreen\" >Only 1500 left to go!</h1><img id=\"box\" src=\"img/prizes/coins2.png\"></img><img id=\"box\" src=\"img/empty/greenopenbox.png\"></img></div>","key_press":null,"trial_type":"html-keyboard-response","trial_index":61,"time_elapsed":294958,"internal_node_id":"0.0-19.18-1.18"},{"rt":1844.7150000138208,"stimulus":"<p>Choose a box,</p>","button_pressed":2,"trial_type":"html-button-response","trial_index":62,"time_elapsed":296804,"internal_node_id":"0.0-19.19-0.19"},{"reward":50,"trial_type":"html-keyboard-response","trial_index":63,"time_elapsed":296805,"internal_node_id":"0.0-19.19-1.19"},{"penalty":50,"trial_type":"html-keyboard-response","trial_index":63,"time_elapsed":296805,"internal_node_id":"0.0-19.19-1.19"},{"fined":false,"trial_type":"html-keyboard-response","trial_index":63,"time_elapsed":296805,"internal_node_id":"0.0-19.19-1.19"},{"rt":null,"stimulus":"<div style=\"background-color:#6dce98\"><h1 style=\"background-color:MediumSeaGreen\" >You earned 50 coins! Well done!</h1><div style=\"background-color:#6dce98\"><h1 style=\"background-color:MediumSeaGreen\" >Only 1450 left to go!</h1><img id=\"box\" src=\"img/prizes/coins.png\"></img><img id=\"box\" src=\"img/empty/purpleopenbox.png\"></img></div>","key_press":null,"trial_type":"html-keyboard-response","trial_index":63,"time_elapsed":299806,"internal_node_id":"0.0-19.19-1.19"},{"rt":958.1950000138022,"stimulus":"<p>Choose a box,</p>","button_pressed":1,"trial_type":"html-button-response","trial_index":64,"time_elapsed":300766,"internal_node_id":"0.0-19.20-0.20"},{"reward":100,"trial_type":"html-keyboard-response","trial_index":65,"time_elapsed":300766,"internal_node_id":"0.0-19.20-1.20"},{"penalty":1250,"trial_type":"html-keyboard-response","trial_index":65,"time_elapsed":300766,"internal_node_id":"0.0-19.20-1.20"},{"fined":false,"trial_type":"html-keyboard-response","trial_index":65,"time_elapsed":300766,"internal_node_id":"0.0-19.20-1.20"},{"rt":null,"stimulus":"<div style=\"background-color:#6dce98\"><h1 style=\"background-color:MediumSeaGreen\" >You earned 100 coins! Well done!</h1><div style=\"background-color:#6dce98\"><h1 style=\"background-color:MediumSeaGreen\" >Only 1350 left to go!</h1><img id=\"box\" src=\"img/prizes/coins2.png\"></img><img id=\"box\" src=\"img/empty/greenopenbox.png\"></img></div>","key_press":null,"trial_type":"html-keyboard-response","trial_index":65,"time_elapsed":303767,"internal_node_id":"0.0-19.20-1.20"},{"rt":910.3350000223145,"stimulus":"<p>Choose a box,</p>","button_pressed":1,"trial_type":"html-button-response","trial_index":66,"time_elapsed":304679,"internal_node_id":"0.0-19.21-0.21"},{"reward":100,"trial_type":"html-keyboard-response","trial_index":67,"time_elapsed":304679,"internal_node_id":"0.0-19.21-1.21"},{"penalty":1250,"trial_type":"html-keyboard-response","trial_index":67,"time_elapsed":304679,"internal_node_id":"0.0-19.21-1.21"},{"fined":false,"trial_type":"html-keyboard-response","trial_index":67,"time_elapsed":304679,"internal_node_id":"0.0-19.21-1.21"},{"rt":null,"stimulus":"<div style=\"background-color:#6dce98\"><h1 style=\"background-color:MediumSeaGreen\" >You earned 100 coins! Well done!</h1><div style=\"background-color:#6dce98\"><h1 style=\"background-color:MediumSeaGreen\" >Only 1250 left to go!</h1><img id=\"box\" src=\"img/prizes/coins2.png\"></img><img id=\"box\" src=\"img/empty/greenopenbox.png\"></img></div>","key_press":null,"trial_type":"html-keyboard-response","trial_index":67,"time_elapsed":307681,"internal_node_id":"0.0-19.21-1.21"},{"rt":439.7599999792874,"stimulus":"<p>Choose a box,</p>","button_pressed":1,"trial_type":"html-button-response","trial_index":68,"time_elapsed":308122,"internal_node_id":"0.0-19.22-0.22"},{"reward":100,"trial_type":"html-keyboard-response","trial_index":69,"time_elapsed":308122,"internal_node_id":"0.0-19.22-1.22"},{"penalty":1250,"trial_type":"html-keyboard-response","trial_index":69,"time_elapsed":308122,"internal_node_id":"0.0-19.22-1.22"},{"fined":false,"trial_type":"html-keyboard-response","trial_index":69,"time_elapsed":308122,"internal_node_id":"0.0-19.22-1.22"},{"rt":null,"stimulus":"<div style=\"background-color:#6dce98\"><h1 style=\"background-color:MediumSeaGreen\" >You earned 100 coins! Well done!</h1><div style=\"background-color:#6dce98\"><h1 style=\"background-color:MediumSeaGreen\" >Only 1150 left to go!</h1><img id=\"box\" src=\"img/prizes/coins2.png\"></img><img id=\"box\" src=\"img/empty/greenopenbox.png\"></img></div>","key_press":null,"trial_type":"html-keyboard-response","trial_index":69,"time_elapsed":311124,"internal_node_id":"0.0-19.22-1.22"},{"rt":1921.2500000139698,"stimulus":"<p>Choose a box,</p>","button_pressed":2,"trial_type":"html-button-response","trial_index":70,"time_elapsed":313047,"internal_node_id":"0.0-19.23-0.23"},{"reward":50,"trial_type":"html-keyboard-response","trial_index":71,"time_elapsed":313047,"internal_node_id":"0.0-19.23-1.23"},{"penalty":50,"trial_type":"html-keyboard-response","trial_index":71,"time_elapsed":313047,"internal_node_id":"0.0-19.23-1.23"},{"fined":false,"trial_type":"html-keyboard-response","trial_index":71,"time_elapsed":313047,"internal_node_id":"0.0-19.23-1.23"},{"rt":null,"stimulus":"<div style=\"background-color:#6dce98\"><h1 style=\"background-color:MediumSeaGreen\" >You earned 50 coins! Well done!</h1><div style=\"background-color:#6dce98\"><h1 style=\"background-color:MediumSeaGreen\" >Only 1100 left to go!</h1><img id=\"box\" src=\"img/prizes/coins.png\"></img><img id=\"box\" src=\"img/empty/purpleopenbox.png\"></img></div>","key_press":null,"trial_type":"html-keyboard-response","trial_index":71,"time_elapsed":316049,"internal_node_id":"0.0-19.23-1.23"},{"rt":503.484999993816,"stimulus":"<p>Choose a box,</p>","button_pressed":2,"trial_type":"html-button-response","trial_index":72,"time_elapsed":316553,"internal_node_id":"0.0-19.24-0.24"},{"reward":50,"trial_type":"html-keyboard-response","trial_index":73,"time_elapsed":316554,"internal_node_id":"0.0-19.24-1.24"},{"penalty":50,"trial_type":"html-keyboard-response","trial_index":73,"time_elapsed":316554,"internal_node_id":"0.0-19.24-1.24"},{"fined":false,"trial_type":"html-keyboard-response","trial_index":73,"time_elapsed":316554,"internal_node_id":"0.0-19.24-1.24"},{"rt":null,"stimulus":"<div style=\"background-color:#6dce98\"><h1 style=\"background-color:MediumSeaGreen\" >You earned 50 coins! Well done!</h1><div style=\"background-color:#6dce98\"><h1 style=\"background-color:MediumSeaGreen\" >Only 1050 left to go!</h1><img id=\"box\" src=\"img/prizes/coins.png\"></img><img id=\"box\" src=\"img/empty/purpleopenbox.png\"></img></div>","key_press":null,"trial_type":"html-keyboard-response","trial_index":73,"time_elapsed":319555,"internal_node_id":"0.0-19.24-1.24"},{"rt":471.5349999605678,"stimulus":"<p>Choose a box,</p>","button_pressed":1,"trial_type":"html-button-response","trial_index":74,"time_elapsed":320028,"internal_node_id":"0.0-19.25-0.25"},{"reward":100,"trial_type":"html-keyboard-response","trial_index":75,"time_elapsed":320028,"internal_node_id":"0.0-19.25-1.25"},{"penalty":1250,"trial_type":"html-keyboard-response","trial_index":75,"time_elapsed":320028,"internal_node_id":"0.0-19.25-1.25"},{"fined":false,"trial_type":"html-keyboard-response","trial_index":75,"time_elapsed":320028,"internal_node_id":"0.0-19.25-1.25"},{"rt":null,"stimulus":"<div style=\"background-color:#6dce98\"><h1 style=\"background-color:MediumSeaGreen\" >You earned 100 coins! Well done!</h1><div style=\"background-color:#6dce98\"><h1 style=\"background-color:MediumSeaGreen\" >Only 950 left to go!</h1><img id=\"box\" src=\"img/prizes/coins2.png\"></img><img id=\"box\" src=\"img/empty/greenopenbox.png\"></img></div>","key_press":null,"trial_type":"html-keyboard-response","trial_index":75,"time_elapsed":323031,"internal_node_id":"0.0-19.25-1.25"},{"rt":525.4450000356883,"stimulus":"<p>Choose a box,</p>","button_pressed":1,"trial_type":"html-button-response","trial_index":76,"time_elapsed":323558,"internal_node_id":"0.0-19.26-0.26"},{"reward":100,"trial_type":"html-keyboard-response","trial_index":77,"time_elapsed":323558,"internal_node_id":"0.0-19.26-1.26"},{"penalty":1250,"trial_type":"html-keyboard-response","trial_index":77,"time_elapsed":323558,"internal_node_id":"0.0-19.26-1.26"},{"fined":false,"trial_type":"html-keyboard-response","trial_index":77,"time_elapsed":323558,"internal_node_id":"0.0-19.26-1.26"},{"rt":null,"stimulus":"<div style=\"background-color:#6dce98\"><h1 style=\"background-color:MediumSeaGreen\" >You earned 100 coins! Well done!</h1><div style=\"background-color:#6dce98\"><h1 style=\"background-color:MediumSeaGreen\" >Only 850 left to go!</h1><img id=\"box\" src=\"img/prizes/coins2.png\"></img><img id=\"box\" src=\"img/empty/greenopenbox.png\"></img></div>","key_press":null,"trial_type":"html-keyboard-response","trial_index":77,"time_elapsed":326560,"internal_node_id":"0.0-19.26-1.26"},{"rt":1172.374999965541,"stimulus":"<p>Choose a box,</p>","button_pressed":1,"trial_type":"html-button-response","trial_index":78,"time_elapsed":327733,"internal_node_id":"0.0-19.27-0.27"},{"reward":100,"trial_type":"html-keyboard-response","trial_index":79,"time_elapsed":327734,"internal_node_id":"0.0-19.27-1.27"},{"penalty":1250,"trial_type":"html-keyboard-response","trial_index":79,"time_elapsed":327734,"internal_node_id":"0.0-19.27-1.27"},{"fined":false,"trial_type":"html-keyboard-response","trial_index":79,"time_elapsed":327734,"internal_node_id":"0.0-19.27-1.27"},{"rt":null,"stimulus":"<div style=\"background-color:#6dce98\"><h1 style=\"background-color:MediumSeaGreen\" >You earned 100 coins! Well done!</h1><div style=\"background-color:#6dce98\"><h1 style=\"background-color:MediumSeaGreen\" >Only 750 left to go!</h1><img id=\"box\" src=\"img/prizes/coins2.png\"></img><img id=\"box\" src=\"img/empty/greenopenbox.png\"></img></div>","key_press":null,"trial_type":"html-keyboard-response","trial_index":79,"time_elapsed":330740,"internal_node_id":"0.0-19.27-1.27"},{"rt":1286.7750000441447,"stimulus":"<p>Choose a box,</p>","button_pressed":2,"trial_type":"html-button-response","trial_index":80,"time_elapsed":332029,"internal_node_id":"0.0-19.28-0.28"},{"reward":50,"trial_type":"html-keyboard-response","trial_index":81,"time_elapsed":332029,"internal_node_id":"0.0-19.28-1.28"},{"penalty":50,"trial_type":"html-keyboard-response","trial_index":81,"time_elapsed":332029,"internal_node_id":"0.0-19.28-1.28"},{"fined":true,"trial_type":"html-keyboard-response","trial_index":81,"time_elapsed":332029,"internal_node_id":"0.0-19.28-1.28"},{"rt":null,"stimulus":"<div style=\"background-color:#ff7157\"><h1 style=\"background-color:MediumSeaGreen\">You earned 50 coins</h1><h1 h1 style=\"background-color:Tomato\">but you have recieved a fine of 50 coins</h1><h1 style=\"background-color:Tomato\">Remember, you need to keep going until you have 3000 coins!</h1><img id=\"box\" src=\"img/prizes/50.png\"></img><img id=\"box\" src=\"img/sad/purpleopenboxsadthumb.png\"></img></div>","key_press":null,"trial_type":"html-keyboard-response","trial_index":81,"time_elapsed":335030,"internal_node_id":"0.0-19.28-1.28"},{"rt":590.5600000405684,"stimulus":"<p>Choose a box,</p>","button_pressed":1,"trial_type":"html-button-response","trial_index":82,"time_elapsed":335622,"internal_node_id":"0.0-19.29-0.29"},{"reward":100,"trial_type":"html-keyboard-response","trial_index":83,"time_elapsed":335622,"internal_node_id":"0.0-19.29-1.29"},{"penalty":1250,"trial_type":"html-keyboard-response","trial_index":83,"time_elapsed":335622,"internal_node_id":"0.0-19.29-1.29"},{"fined":false,"trial_type":"html-keyboard-response","trial_index":83,"time_elapsed":335622,"internal_node_id":"0.0-19.29-1.29"},{"rt":null,"stimulus":"<div style=\"background-color:#6dce98\"><h1 style=\"background-color:MediumSeaGreen\" >You earned 100 coins! Well done!</h1><div style=\"background-color:#6dce98\"><h1 style=\"background-color:MediumSeaGreen\" >Only 650 left to go!</h1><img id=\"box\" src=\"img/prizes/coins2.png\"></img><img id=\"box\" src=\"img/empty/greenopenbox.png\"></img></div>","key_press":null,"trial_type":"html-keyboard-response","trial_index":83,"time_elapsed":338624,"internal_node_id":"0.0-19.29-1.29"},{"rt":414.8350000032224,"stimulus":"<p>Choose a box,</p>","button_pressed":1,"trial_type":"html-button-response","trial_index":84,"time_elapsed":339040,"internal_node_id":"0.0-19.30-0.30"},{"reward":100,"trial_type":"html-keyboard-response","trial_index":85,"time_elapsed":339040,"internal_node_id":"0.0-19.30-1.30"},{"penalty":1250,"trial_type":"html-keyboard-response","trial_index":85,"time_elapsed":339040,"internal_node_id":"0.0-19.30-1.30"},{"fined":false,"trial_type":"html-keyboard-response","trial_index":85,"time_elapsed":339040,"internal_node_id":"0.0-19.30-1.30"},{"rt":null,"stimulus":"<div style=\"background-color:#6dce98\"><h1 style=\"background-color:MediumSeaGreen\" >You earned 100 coins! Well done!</h1><div style=\"background-color:#6dce98\"><h1 style=\"background-color:MediumSeaGreen\" >Only 550 left to go!</h1><img id=\"box\" src=\"img/prizes/coins2.png\"></img><img id=\"box\" src=\"img/empty/greenopenbox.png\"></img></div>","key_press":null,"trial_type":"html-keyboard-response","trial_index":85,"time_elapsed":342042,"internal_node_id":"0.0-19.30-1.30"},{"rt":399.245000036899,"stimulus":"<p>Choose a box,</p>","button_pressed":1,"trial_type":"html-button-response","trial_index":86,"time_elapsed":342443,"internal_node_id":"0.0-19.31-0.31"},{"reward":100,"trial_type":"html-keyboard-response","trial_index":87,"time_elapsed":342443,"internal_node_id":"0.0-19.31-1.31"},{"penalty":1250,"trial_type":"html-keyboard-response","trial_index":87,"time_elapsed":342443,"internal_node_id":"0.0-19.31-1.31"},{"fined":false,"trial_type":"html-keyboard-response","trial_index":87,"time_elapsed":342443,"internal_node_id":"0.0-19.31-1.31"},{"rt":null,"stimulus":"<div style=\"background-color:#6dce98\"><h1 style=\"background-color:MediumSeaGreen\" >You earned 100 coins! Well done!</h1><div style=\"background-color:#6dce98\"><h1 style=\"background-color:MediumSeaGreen\" >Only 450 left to go!</h1><img id=\"box\" src=\"img/prizes/coins2.png\"></img><img id=\"box\" src=\"img/empty/greenopenbox.png\"></img></div>","key_press":null,"trial_type":"html-keyboard-response","trial_index":87,"time_elapsed":345449,"internal_node_id":"0.0-19.31-1.31"},{"rt":562.3449999839067,"stimulus":"<p>Choose a box,</p>","button_pressed":1,"trial_type":"html-button-response","trial_index":88,"time_elapsed":346013,"internal_node_id":"0.0-19.32-0.32"},{"reward":100,"trial_type":"html-keyboard-response","trial_index":89,"time_elapsed":346013,"internal_node_id":"0.0-19.32-1.32"},{"penalty":1250,"trial_type":"html-keyboard-response","trial_index":89,"time_elapsed":346013,"internal_node_id":"0.0-19.32-1.32"},{"fined":false,"trial_type":"html-keyboard-response","trial_index":89,"time_elapsed":346013,"internal_node_id":"0.0-19.32-1.32"},{"rt":null,"stimulus":"<div style=\"background-color:#6dce98\"><h1 style=\"background-color:MediumSeaGreen\" >You earned 100 coins! Well done!</h1><div style=\"background-color:#6dce98\"><h1 style=\"background-color:MediumSeaGreen\" >Only 350 left to go!</h1><img id=\"box\" src=\"img/prizes/coins2.png\"></img><img id=\"box\" src=\"img/empty/greenopenbox.png\"></img></div>","key_press":null,"trial_type":"html-keyboard-response","trial_index":89,"time_elapsed":349014,"internal_node_id":"0.0-19.32-1.32"},{"rt":432.31500004185364,"stimulus":"<p>Choose a box,</p>","button_pressed":2,"trial_type":"html-button-response","trial_index":90,"time_elapsed":349448,"internal_node_id":"0.0-19.33-0.33"},{"reward":50,"trial_type":"html-keyboard-response","trial_index":91,"time_elapsed":349448,"internal_node_id":"0.0-19.33-1.33"},{"penalty":50,"trial_type":"html-keyboard-response","trial_index":91,"time_elapsed":349448,"internal_node_id":"0.0-19.33-1.33"},{"fined":true,"trial_type":"html-keyboard-response","trial_index":91,"time_elapsed":349448,"internal_node_id":"0.0-19.33-1.33"},{"rt":null,"stimulus":"<div style=\"background-color:#ff7157\"><h1 style=\"background-color:MediumSeaGreen\">You earned 50 coins</h1><h1 h1 style=\"background-color:Tomato\">but you have recieved a fine of 50 coins</h1><h1 style=\"background-color:Tomato\">Remember, you need to keep going until you have 3000 coins!</h1><img id=\"box\" src=\"img/prizes/50.png\"></img><img id=\"box\" src=\"img/sad/purpleopenboxsadthumb.png\"></img></div>","key_press":null,"trial_type":"html-keyboard-response","trial_index":91,"time_elapsed":352449,"internal_node_id":"0.0-19.33-1.33"},{"rt":565.935000020545,"stimulus":"<p>Choose a box,</p>","button_pressed":1,"trial_type":"html-button-response","trial_index":92,"time_elapsed":353017,"internal_node_id":"0.0-19.34-0.34"},{"reward":100,"trial_type":"html-keyboard-response","trial_index":93,"time_elapsed":353017,"internal_node_id":"0.0-19.34-1.34"},{"penalty":1250,"trial_type":"html-keyboard-response","trial_index":93,"time_elapsed":353017,"internal_node_id":"0.0-19.34-1.34"},{"fined":false,"trial_type":"html-keyboard-response","trial_index":93,"time_elapsed":353017,"internal_node_id":"0.0-19.34-1.34"},{"rt":null,"stimulus":"<div style=\"background-color:#6dce98\"><h1 style=\"background-color:MediumSeaGreen\" >You earned 100 coins! Well done!</h1><div style=\"background-color:#6dce98\"><h1 style=\"background-color:MediumSeaGreen\" >Only 250 left to go!</h1><img id=\"box\" src=\"img/prizes/coins2.png\"></img><img id=\"box\" src=\"img/empty/greenopenbox.png\"></img></div>","key_press":null,"trial_type":"html-keyboard-response","trial_index":93,"time_elapsed":356023,"internal_node_id":"0.0-19.34-1.34"},{"rt":290.5049999826588,"stimulus":"<p>Choose a box,</p>","button_pressed":1,"trial_type":"html-button-response","trial_index":94,"time_elapsed":356315,"internal_node_id":"0.0-19.35-0.35"},{"reward":100,"trial_type":"html-keyboard-response","trial_index":95,"time_elapsed":356316,"internal_node_id":"0.0-19.35-1.35"},{"penalty":1250,"trial_type":"html-keyboard-response","trial_index":95,"time_elapsed":356316,"internal_node_id":"0.0-19.35-1.35"},{"fined":false,"trial_type":"html-keyboard-response","trial_index":95,"time_elapsed":356316,"internal_node_id":"0.0-19.35-1.35"},{"rt":null,"stimulus":"<div style=\"background-color:#6dce98\"><h1 style=\"background-color:MediumSeaGreen\" >You earned 100 coins! Well done!</h1><div style=\"background-color:#6dce98\"><h1 style=\"background-color:MediumSeaGreen\" >Only 150 left to go!</h1><img id=\"box\" src=\"img/prizes/coins2.png\"></img><img id=\"box\" src=\"img/empty/greenopenbox.png\"></img></div>","key_press":null,"trial_type":"html-keyboard-response","trial_index":95,"time_elapsed":359322,"internal_node_id":"0.0-19.35-1.35"},{"rt":991.9799999915995,"stimulus":"<p>Choose a box,</p>","button_pressed":1,"trial_type":"html-button-response","trial_index":96,"time_elapsed":360316,"internal_node_id":"0.0-19.36-0.36"},{"reward":100,"trial_type":"html-keyboard-response","trial_index":97,"time_elapsed":360316,"internal_node_id":"0.0-19.36-1.36"},{"penalty":1250,"trial_type":"html-keyboard-response","trial_index":97,"time_elapsed":360316,"internal_node_id":"0.0-19.36-1.36"},{"fined":false,"trial_type":"html-keyboard-response","trial_index":97,"time_elapsed":360316,"internal_node_id":"0.0-19.36-1.36"},{"rt":null,"stimulus":"<div style=\"background-color:#6dce98\"><h1 style=\"background-color:MediumSeaGreen\" >You earned 100 coins! Well done!</h1><div style=\"background-color:#6dce98\"><h1 style=\"background-color:MediumSeaGreen\" >Only 50 left to go!</h1><img id=\"box\" src=\"img/prizes/coins2.png\"></img><img id=\"box\" src=\"img/empty/greenopenbox.png\"></img></div>","key_press":null,"trial_type":"html-keyboard-response","trial_index":97,"time_elapsed":363323,"internal_node_id":"0.0-19.36-1.36"},{"rt":1508.6649999720976,"stimulus":"<p>Choose a box,</p>","button_pressed":2,"trial_type":"html-button-response","trial_index":98,"time_elapsed":364833,"internal_node_id":"0.0-19.37-0.37"},{"reward":50,"trial_type":"html-keyboard-response","trial_index":99,"time_elapsed":364833,"internal_node_id":"0.0-19.37-1.37"},{"penalty":50,"trial_type":"html-keyboard-response","trial_index":99,"time_elapsed":364833,"internal_node_id":"0.0-19.37-1.37"},{"fined":true,"trial_type":"html-keyboard-response","trial_index":99,"time_elapsed":364833,"internal_node_id":"0.0-19.37-1.37"},{"rt":null,"stimulus":"<div style=\"background-color:#ff7157\"><h1 style=\"background-color:MediumSeaGreen\">You earned 50 coins</h1><h1 h1 style=\"background-color:Tomato\">but you have recieved a fine of 50 coins</h1><h1 style=\"background-color:Tomato\">Remember, you need to keep going until you have 3000 coins!</h1><img id=\"box\" src=\"img/prizes/50.png\"></img><img id=\"box\" src=\"img/sad/purpleopenboxsadthumb.png\"></img></div>","key_press":null,"trial_type":"html-keyboard-response","trial_index":99,"time_elapsed":367835,"internal_node_id":"0.0-19.37-1.37"},{"rt":462.8699999884702,"stimulus":"<p>Choose a box,</p>","button_pressed":1,"trial_type":"html-button-response","trial_index":100,"time_elapsed":368299,"internal_node_id":"0.0-19.38-0.38"},{"reward":100,"trial_type":"html-keyboard-response","trial_index":101,"time_elapsed":368299,"internal_node_id":"0.0-19.38-1.38"},{"penalty":1250,"trial_type":"html-keyboard-response","trial_index":101,"time_elapsed":368299,"internal_node_id":"0.0-19.38-1.38"},{"fined":false,"trial_type":"html-keyboard-response","trial_index":101,"time_elapsed":368299,"internal_node_id":"0.0-19.38-1.38"},{"rt":null,"stimulus":"<div style=\"background-color:#6dce98\"><h1 style=\"background-color:MediumSeaGreen\" >You earned 100 coins! Well done!</h1><div style=\"background-color:#6dce98\"><h1 style=\"background-color:MediumSeaGreen\" >Only -50 left to go!</h1><img id=\"box\" src=\"img/prizes/coins2.png\"></img><img id=\"box\" src=\"img/empty/greenopenbox.png\"></img></div>","key_press":null,"trial_type":"html-keyboard-response","trial_index":101,"time_elapsed":371300,"internal_node_id":"0.0-19.38-1.38"},{"rt":140428.93500003265,"responses":"{\"Q0\":\"It was simple, but I think that can make it an effective way to find simple trends.\",\"Q1\":\"I checked each box for punishment and rewards, and then found the green box kept rewarding me, until I used it too many times. So in-between green choices I chose the purple box because it would not really penalise me (+50-50) and my progress would remain the same. I got more cautious as I neared the end, and mixed up my choices slightly more frequently.\"}","trial_type":"survey-text","trial_index":102,"time_elapsed":511739,"internal_node_id":"0.0-20.0"}]