[
    {
        "view_history": "[{\"page_index\":0,\"viewing_time\":14428.65499999607},{\"page_index\":1,\"viewing_time\":7729.32500000752},{\"page_index\":2,\"viewing_time\":18898.95499999693},{\"page_index\":3,\"viewing_time\":13381.865000003017},{\"page_index\":4,\"viewing_time\":8268.389999997453},{\"page_index\":5,\"viewing_time\":16029.240000003483}]",
        "rt": 78736.95500000031,
        "trial_type": "instructions",
        "trial_index": 0,
        "time_elapsed": 78736,
        "internal_node_id": "0.0-0.0"
    },
    {
        "rt": 10598.329999993439,
        "responses": "{\"Q0\":\"Yes\",\"Q1\":\"Yes\",\"Q2\":\"Yes\"}",
        "question_order": "[0,1,2]",
        "trial_type": "survey-multi-choice",
        "trial_index": 1,
        "time_elapsed": 89336,
        "internal_node_id": "0.0-1.0-0.0"
    },
    {
        "rt": 11612.159999989672,
        "responses": "{\"Q0\":\"Yes\",\"Q1\":\"Yes\",\"Q2\":\"Yes\"}",
        "question_order": "[0,1,2]",
        "trial_type": "survey-multi-choice",
        "trial_index": 2,
        "time_elapsed": 100949,
        "internal_node_id": "0.0-2.0-0.0"
    },
    {
        "rt": 10340.84500001336,
        "responses": "{\"Q0\":\"8827\"}",
        "trial_type": "survey-text",
        "trial_index": 3,
        "time_elapsed": 111298,
        "internal_node_id": "0.0-3.0"
    },
    {
        "rt": 7919.069999989006,
        "responses": "{\"Q0\":\"Male\",\"Q1\":\"45-54\"}",
        "question_order": "[0,1]",
        "trial_type": "survey-multi-choice",
        "trial_index": 4,
        "time_elapsed": 119218,
        "internal_node_id": "0.0-4.0"
    },
    {
        "view_history": "[{\"page_index\":0,\"viewing_time\":4413.209999998799}]",
        "rt": 4413.360000005923,
        "trial_type": "instructions",
        "trial_index": 5,
        "time_elapsed": 123632,
        "internal_node_id": "0.0-5.0"
    },
    {
        "rt": 80590.04999999888,
        "responses": "{\"Interested\":1,\"Distressed\":0,\"Excited\":0,\"Upset\":0}",
        "question_order": "[0,1,2,3]",
        "trial_type": "survey-likert",
        "trial_index": 6,
        "time_elapsed": 204221,
        "internal_node_id": "0.0-6.0"
    },
    {
        "rt": 18369.879999998375,
        "responses": "{\"Strong\":1,\"Guilty\":0,\"Scared\":0,\"Hostile\":1}",
        "question_order": "[0,1,2,3]",
        "trial_type": "survey-likert",
        "trial_index": 7,
        "time_elapsed": 222592,
        "internal_node_id": "0.0-7.0"
    },
    {
        "rt": 17094.834999996237,
        "responses": "{\"Enthusiastic\":1,\"Proud\":0,\"Irritable\":1,\"Alert\":3}",
        "question_order": "[0,1,2,3]",
        "trial_type": "survey-likert",
        "trial_index": 8,
        "time_elapsed": 239692,
        "internal_node_id": "0.0-8.0"
    },
    {
        "rt": 14532.495000006747,
        "responses": "{\"Ashamed\":0,\"Inspired\":1,\"Nervous\":1,\"Determined\":1}",
        "question_order": "[0,1,2,3]",
        "trial_type": "survey-likert",
        "trial_index": 9,
        "time_elapsed": 254225,
        "internal_node_id": "0.0-9.0"
    },
    {
        "rt": 15833.77000001201,
        "responses": "{\"Attentive\":1,\"Jittery\":0,\"Active\":3,\"Afraid\":0}",
        "question_order": "[0,1,2,3]",
        "trial_type": "survey-likert",
        "trial_index": 10,
        "time_elapsed": 270061,
        "internal_node_id": "0.0-10.0"
    },
    {
        "rt": 45748.94999999378,
        "responses": "{\"Q0\":0,\"Q1\":0,\"Q2\":1,\"Q3\":1}",
        "question_order": "[0,1,2,3]",
        "trial_type": "survey-likert",
        "trial_index": 11,
        "time_elapsed": 315811,
        "internal_node_id": "0.0-11.0"
    },
    {
        "rt": 32636.295000003884,
        "responses": "{\"Q0\":1,\"Q1\":0,\"Q2\":1,\"Q3\":0}",
        "question_order": "[0,1,2,3]",
        "trial_type": "survey-likert",
        "trial_index": 12,
        "time_elapsed": 348448,
        "internal_node_id": "0.0-12.0"
    },
    {
        "rt": 22263.845000008587,
        "responses": "{\"Q0\":0,\"Q1\":1,\"Q2\":1,\"Q3\":1}",
        "question_order": "[0,1,2,3]",
        "trial_type": "survey-likert",
        "trial_index": 13,
        "time_elapsed": 370714,
        "internal_node_id": "0.0-13.0"
    },
    {
        "rt": 12230.949999997392,
        "responses": "{\"Q0\":0,\"Q1\":1,\"Q2\":0}",
        "question_order": "[0,1,2]",
        "trial_type": "survey-likert",
        "trial_index": 14,
        "time_elapsed": 382946,
        "internal_node_id": "0.0-14.0"
    },
    {
        "view_history": "[{\"page_index\":0,\"viewing_time\":3009.894999995595},{\"page_index\":1,\"viewing_time\":9918.644999997923},{\"page_index\":2,\"viewing_time\":9492.33500000264}]",
        "rt": 22421.0299999977,
        "trial_type": "instructions",
        "trial_index": 15,
        "time_elapsed": 405375,
        "internal_node_id": "0.0-15.0"
    },
    {
        "rt": 2325.4000000015367,
        "stimulus": "<p>Choose a box,</p>",
        "button_pressed": 2,
        "trial_type": "html-button-response",
        "trial_index": 16,
        "time_elapsed": 407701,
        "internal_node_id": "0.0-16.0-0.0"
    },
    {
        "rate": 0.5965299852186293,
        "trial_type": "html-keyboard-response",
        "trial_index": 17,
        "time_elapsed": 407702,
        "internal_node_id": "0.0-16.0-1.0"
    },
    {
        "rt": null,
        "stimulus": "<div style=\"background-color:#ff7157\"><h1 style=\"background-color:Tomato\">Bad luck! There was no prize in the box!</h1><h1 style=\"background-color:Tomato\">Remember, you need to have 20 prizes to finish!</h1><img id=\"box\" src=\"img/sad/purpleopenboxsadthumb.png\"></img></div>",
        "key_press": null,
        "trial_type": "html-keyboard-response",
        "trial_index": 17,
        "time_elapsed": 409215,
        "internal_node_id": "0.0-16.0-1.0"
    },
    {
        "rt": 2127.0650000078604,
        "stimulus": "<p>Choose a box,</p>",
        "button_pressed": 3,
        "trial_type": "html-button-response",
        "trial_index": 18,
        "time_elapsed": 411343,
        "internal_node_id": "0.0-16.0-0.1"
    },
    {
        "rate": 0.7898027170688101,
        "trial_type": "html-keyboard-response",
        "trial_index": 19,
        "time_elapsed": 411343,
        "internal_node_id": "0.0-16.0-1.1"
    },
    {
        "rt": null,
        "stimulus": "<div style=\"background-color:#6dce98\"><h1 style=\"background-color:MediumSeaGreen\" >You won a prize! Well done!</h1><div style=\"background-color:#6dce98\"><h1 style=\"background-color:MediumSeaGreen\" >Only 19 left to go!</h1><img id=\"box\" src=\"img/prizes/beachball.png\"></img><img id=\"box\" src=\"img/empty/redopenbox.png\"></img></div>",
        "key_press": null,
        "trial_type": "html-keyboard-response",
        "trial_index": 19,
        "time_elapsed": 412852,
        "internal_node_id": "0.0-16.0-1.1"
    },
    {
        "rt": 3545.795000012731,
        "stimulus": "<p>Choose a box,</p>",
        "button_pressed": 1,
        "trial_type": "html-button-response",
        "trial_index": 20,
        "time_elapsed": 416399,
        "internal_node_id": "0.0-16.0-0.2"
    },
    {
        "rate": 0.1563849980687248,
        "trial_type": "html-keyboard-response",
        "trial_index": 21,
        "time_elapsed": 416399,
        "internal_node_id": "0.0-16.0-1.2"
    },
    {
        "rt": null,
        "stimulus": "<div style=\"background-color:#ff7157\"><h1 style=\"background-color:Tomato\">Bad luck! There was no prize in the box!</h1><h1 style=\"background-color:Tomato\">Remember, you need to have 20 prizes to finish!</h1><img id=\"box\" src=\"img/sad/greenopenboxsadthumb.png\"></img></div>",
        "key_press": null,
        "trial_type": "html-keyboard-response",
        "trial_index": 21,
        "time_elapsed": 417906,
        "internal_node_id": "0.0-16.0-1.2"
    },
    {
        "view_history": "[{\"page_index\":0,\"viewing_time\":2118.8899999979185}]",
        "rt": 2119.055000002845,
        "trial_type": "instructions",
        "trial_index": 22,
        "time_elapsed": 420026,
        "internal_node_id": "0.0-17.0"
    },
    {
        "rt": 2455.6749999901513,
        "stimulus": "<p>Choose a box,</p>",
        "button_pressed": 3,
        "trial_type": "html-button-response",
        "trial_index": 23,
        "time_elapsed": 422483,
        "internal_node_id": "0.0-18.0-0.0"
    },
    {
        "rate": 0.9201971434912078,
        "trial_type": "html-keyboard-response",
        "trial_index": 24,
        "time_elapsed": 422483,
        "internal_node_id": "0.0-18.0-1.0"
    },
    {
        "rt": null,
        "stimulus": "<div style=\"background-color:#ff7157\"><h1 style=\"background-color:Tomato\">Bad luck! There was no prize in the box!</h1><h1 style=\"background-color:Tomato\">Remember, you need to have 20 prizes to finish!</h1><img id=\"box\" src=\"img/sad/redopenboxsadthumb.png\"></img></div>",
        "key_press": null,
        "trial_type": "html-keyboard-response",
        "trial_index": 24,
        "time_elapsed": 423986,
        "internal_node_id": "0.0-18.0-1.0"
    },
    {
        "rt": 3206.8549999967217,
        "stimulus": "<p>Choose a box,</p>",
        "button_pressed": 2,
        "trial_type": "html-button-response",
        "trial_index": 25,
        "time_elapsed": 427193,
        "internal_node_id": "0.0-18.1-0.1"
    },
    {
        "rate": 0.30313771358709396,
        "trial_type": "html-keyboard-response",
        "trial_index": 26,
        "time_elapsed": 427193,
        "internal_node_id": "0.0-18.1-1.1"
    },
    {
        "rt": null,
        "stimulus": "<div style=\"background-color:#ff7157\"><h1 style=\"background-color:Tomato\">Bad luck! There was no prize in the box!</h1><h1 style=\"background-color:Tomato\">Remember, you need to have 20 prizes to finish!</h1><img id=\"box\" src=\"img/sad/purpleopenboxsadthumb.png\"></img></div>",
        "key_press": null,
        "trial_type": "html-keyboard-response",
        "trial_index": 26,
        "time_elapsed": 428695,
        "internal_node_id": "0.0-18.1-1.1"
    },
    {
        "rt": 1442.5400000036461,
        "stimulus": "<p>Choose a box,</p>",
        "button_pressed": 1,
        "trial_type": "html-button-response",
        "trial_index": 27,
        "time_elapsed": 430138,
        "internal_node_id": "0.0-18.2-0.2"
    },
    {
        "rate": 0.19864424689355087,
        "trial_type": "html-keyboard-response",
        "trial_index": 28,
        "time_elapsed": 430139,
        "internal_node_id": "0.0-18.2-1.2"
    },
    {
        "rt": null,
        "stimulus": "<div style=\"background-color:#ff7157\"><h1 style=\"background-color:Tomato\">Bad luck! There was no prize in the box!</h1><h1 style=\"background-color:Tomato\">Remember, you need to have 20 prizes to finish!</h1><img id=\"box\" src=\"img/sad/greenopenboxsadthumb.png\"></img></div>",
        "key_press": null,
        "trial_type": "html-keyboard-response",
        "trial_index": 28,
        "time_elapsed": 431654,
        "internal_node_id": "0.0-18.2-1.2"
    },
    {
        "rt": 2372.074999992037,
        "stimulus": "<p>Choose a box,</p>",
        "button_pressed": 0,
        "trial_type": "html-button-response",
        "trial_index": 29,
        "time_elapsed": 434027,
        "internal_node_id": "0.0-18.3-0.3"
    },
    {
        "rate": 0.5716989871606953,
        "trial_type": "html-keyboard-response",
        "trial_index": 30,
        "time_elapsed": 434027,
        "internal_node_id": "0.0-18.3-1.3"
    },
    {
        "rt": null,
        "stimulus": "<div style=\"background-color:#ff7157\"><h1 style=\"background-color:Tomato\">Bad luck! There was no prize in the box!</h1><h1 style=\"background-color:Tomato\">Remember, you need to have 20 prizes to finish!</h1><img id=\"box\" src=\"img/sad/blueopenboxsadthumb.png\"></img></div>",
        "key_press": null,
        "trial_type": "html-keyboard-response",
        "trial_index": 30,
        "time_elapsed": 435536,
        "internal_node_id": "0.0-18.3-1.3"
    },
    {
        "rt": 1904.0949999907752,
        "stimulus": "<p>Choose a box,</p>",
        "button_pressed": 0,
        "trial_type": "html-button-response",
        "trial_index": 31,
        "time_elapsed": 437441,
        "internal_node_id": "0.0-18.4-0.4"
    },
    {
        "rate": 0.5716989871606953,
        "trial_type": "html-keyboard-response",
        "trial_index": 32,
        "time_elapsed": 437441,
        "internal_node_id": "0.0-18.4-1.4"
    },
    {
        "rt": null,
        "stimulus": "<div style=\"background-color:#6dce98\"><h1 style=\"background-color:MediumSeaGreen\" >You won a prize! Well done!</h1><div style=\"background-color:#6dce98\"><h1 style=\"background-color:MediumSeaGreen\" >Only 19 left to go!</h1><img id=\"box\" src=\"img/prizes/coins.png\"></img><img id=\"box\" src=\"img/empty/blueopenbox.png\"></img></div>",
        "key_press": null,
        "trial_type": "html-keyboard-response",
        "trial_index": 32,
        "time_elapsed": 438945,
        "internal_node_id": "0.0-18.4-1.4"
    },
    {
        "rt": 1424.460000009276,
        "stimulus": "<p>Choose a box,</p>",
        "button_pressed": 0,
        "trial_type": "html-button-response",
        "trial_index": 33,
        "time_elapsed": 440370,
        "internal_node_id": "0.0-18.5-0.5"
    },
    {
        "rate": 0.5716989871606953,
        "trial_type": "html-keyboard-response",
        "trial_index": 34,
        "time_elapsed": 440370,
        "internal_node_id": "0.0-18.5-1.5"
    },
    {
        "rt": null,
        "stimulus": "<div style=\"background-color:#6dce98\"><h1 style=\"background-color:MediumSeaGreen\" >You won a prize! Well done!</h1><div style=\"background-color:#6dce98\"><h1 style=\"background-color:MediumSeaGreen\" >Only 18 left to go!</h1><img id=\"box\" src=\"img/prizes/flowers.png\"></img><img id=\"box\" src=\"img/empty/blueopenbox.png\"></img></div>",
        "key_press": null,
        "trial_type": "html-keyboard-response",
        "trial_index": 34,
        "time_elapsed": 441872,
        "internal_node_id": "0.0-18.5-1.5"
    },
    {
        "rt": 1101.4699999941513,
        "stimulus": "<p>Choose a box,</p>",
        "button_pressed": 0,
        "trial_type": "html-button-response",
        "trial_index": 35,
        "time_elapsed": 442974,
        "internal_node_id": "0.0-18.6-0.6"
    },
    {
        "rate": 0.5716989871606953,
        "trial_type": "html-keyboard-response",
        "trial_index": 36,
        "time_elapsed": 442974,
        "internal_node_id": "0.0-18.6-1.6"
    },
    {
        "rt": null,
        "stimulus": "<div style=\"background-color:#ff7157\"><h1 style=\"background-color:Tomato\">Bad luck! There was no prize in the box!</h1><h1 style=\"background-color:Tomato\">Remember, you need to have 20 prizes to finish!</h1><img id=\"box\" src=\"img/sad/blueopenboxsadthumb.png\"></img></div>",
        "key_press": null,
        "trial_type": "html-keyboard-response",
        "trial_index": 36,
        "time_elapsed": 444490,
        "internal_node_id": "0.0-18.6-1.6"
    },
    {
        "rt": 1341.6300000099,
        "stimulus": "<p>Choose a box,</p>",
        "button_pressed": 3,
        "trial_type": "html-button-response",
        "trial_index": 37,
        "time_elapsed": 445833,
        "internal_node_id": "0.0-18.7-0.7"
    },
    {
        "rate": 0.9201971434912078,
        "trial_type": "html-keyboard-response",
        "trial_index": 38,
        "time_elapsed": 445833,
        "internal_node_id": "0.0-18.7-1.7"
    },
    {
        "rt": null,
        "stimulus": "<div style=\"background-color:#6dce98\"><h1 style=\"background-color:MediumSeaGreen\" >You won a prize! Well done!</h1><div style=\"background-color:#6dce98\"><h1 style=\"background-color:MediumSeaGreen\" >Only 17 left to go!</h1><img id=\"box\" src=\"img/prizes/flowers.png\"></img><img id=\"box\" src=\"img/empty/redopenbox.png\"></img></div>",
        "key_press": null,
        "trial_type": "html-keyboard-response",
        "trial_index": 38,
        "time_elapsed": 447339,
        "internal_node_id": "0.0-18.7-1.7"
    },
    {
        "rt": 2862.7750000014203,
        "stimulus": "<p>Choose a box,</p>",
        "button_pressed": 0,
        "trial_type": "html-button-response",
        "trial_index": 39,
        "time_elapsed": 450202,
        "internal_node_id": "0.0-18.8-0.8"
    },
    {
        "rate": 0.5716989871606953,
        "trial_type": "html-keyboard-response",
        "trial_index": 40,
        "time_elapsed": 450202,
        "internal_node_id": "0.0-18.8-1.8"
    },
    {
        "rt": null,
        "stimulus": "<div style=\"background-color:#ff7157\"><h1 style=\"background-color:Tomato\">Bad luck! There was no prize in the box!</h1><h1 style=\"background-color:Tomato\">Remember, you need to have 20 prizes to finish!</h1><img id=\"box\" src=\"img/sad/blueopenboxsadthumb.png\"></img></div>",
        "key_press": null,
        "trial_type": "html-keyboard-response",
        "trial_index": 40,
        "time_elapsed": 451707,
        "internal_node_id": "0.0-18.8-1.8"
    },
    {
        "rt": 1443.635000003269,
        "stimulus": "<p>Choose a box,</p>",
        "button_pressed": 3,
        "trial_type": "html-button-response",
        "trial_index": 41,
        "time_elapsed": 453152,
        "internal_node_id": "0.0-18.9-0.9"
    },
    {
        "rate": 0.9201971434912078,
        "trial_type": "html-keyboard-response",
        "trial_index": 42,
        "time_elapsed": 453152,
        "internal_node_id": "0.0-18.9-1.9"
    },
    {
        "rt": null,
        "stimulus": "<div style=\"background-color:#6dce98\"><h1 style=\"background-color:MediumSeaGreen\" >You won a prize! Well done!</h1><div style=\"background-color:#6dce98\"><h1 style=\"background-color:MediumSeaGreen\" >Only 16 left to go!</h1><img id=\"box\" src=\"img/prizes/flowers.png\"></img><img id=\"box\" src=\"img/empty/redopenbox.png\"></img></div>",
        "key_press": null,
        "trial_type": "html-keyboard-response",
        "trial_index": 42,
        "time_elapsed": 454666,
        "internal_node_id": "0.0-18.9-1.9"
    },
    {
        "rt": 2768.085000003339,
        "stimulus": "<p>Choose a box,</p>",
        "button_pressed": 0,
        "trial_type": "html-button-response",
        "trial_index": 43,
        "time_elapsed": 457435,
        "internal_node_id": "0.0-18.10-0.10"
    },
    {
        "rate": 0.5716989871606953,
        "trial_type": "html-keyboard-response",
        "trial_index": 44,
        "time_elapsed": 457435,
        "internal_node_id": "0.0-18.10-1.10"
    },
    {
        "rt": null,
        "stimulus": "<div style=\"background-color:#ff7157\"><h1 style=\"background-color:Tomato\">Bad luck! There was no prize in the box!</h1><h1 style=\"background-color:Tomato\">Remember, you need to have 20 prizes to finish!</h1><img id=\"box\" src=\"img/sad/blueopenboxsadthumb.png\"></img></div>",
        "key_press": null,
        "trial_type": "html-keyboard-response",
        "trial_index": 44,
        "time_elapsed": 458942,
        "internal_node_id": "0.0-18.10-1.10"
    },
    {
        "rt": 1195.110000000568,
        "stimulus": "<p>Choose a box,</p>",
        "button_pressed": 3,
        "trial_type": "html-button-response",
        "trial_index": 45,
        "time_elapsed": 460137,
        "internal_node_id": "0.0-18.11-0.11"
    },
    {
        "rate": 0.9201971434912078,
        "trial_type": "html-keyboard-response",
        "trial_index": 46,
        "time_elapsed": 460138,
        "internal_node_id": "0.0-18.11-1.11"
    },
    {
        "rt": null,
        "stimulus": "<div style=\"background-color:#6dce98\"><h1 style=\"background-color:MediumSeaGreen\" >You won a prize! Well done!</h1><div style=\"background-color:#6dce98\"><h1 style=\"background-color:MediumSeaGreen\" >Only 15 left to go!</h1><img id=\"box\" src=\"img/prizes/coins.png\"></img><img id=\"box\" src=\"img/empty/redopenbox.png\"></img></div>",
        "key_press": null,
        "trial_type": "html-keyboard-response",
        "trial_index": 46,
        "time_elapsed": 461643,
        "internal_node_id": "0.0-18.11-1.11"
    },
    {
        "rt": 1006.3349999982165,
        "stimulus": "<p>Choose a box,</p>",
        "button_pressed": 3,
        "trial_type": "html-button-response",
        "trial_index": 47,
        "time_elapsed": 462650,
        "internal_node_id": "0.0-18.12-0.12"
    },
    {
        "rate": 0.9201971434912078,
        "trial_type": "html-keyboard-response",
        "trial_index": 48,
        "time_elapsed": 462650,
        "internal_node_id": "0.0-18.12-1.12"
    },
    {
        "rt": null,
        "stimulus": "<div style=\"background-color:#6dce98\"><h1 style=\"background-color:MediumSeaGreen\" >You won a prize! Well done!</h1><div style=\"background-color:#6dce98\"><h1 style=\"background-color:MediumSeaGreen\" >Only 14 left to go!</h1><img id=\"box\" src=\"img/prizes/choc.png\"></img><img id=\"box\" src=\"img/empty/redopenbox.png\"></img></div>",
        "key_press": null,
        "trial_type": "html-keyboard-response",
        "trial_index": 48,
        "time_elapsed": 464167,
        "internal_node_id": "0.0-18.12-1.12"
    },
    {
        "rt": 788.0449999938719,
        "stimulus": "<p>Choose a box,</p>",
        "button_pressed": 3,
        "trial_type": "html-button-response",
        "trial_index": 49,
        "time_elapsed": 464956,
        "internal_node_id": "0.0-18.13-0.13"
    },
    {
        "rate": 0.9201971434912078,
        "trial_type": "html-keyboard-response",
        "trial_index": 50,
        "time_elapsed": 464956,
        "internal_node_id": "0.0-18.13-1.13"
    },
    {
        "rt": null,
        "stimulus": "<div style=\"background-color:#6dce98\"><h1 style=\"background-color:MediumSeaGreen\" >You won a prize! Well done!</h1><div style=\"background-color:#6dce98\"><h1 style=\"background-color:MediumSeaGreen\" >Only 13 left to go!</h1><img id=\"box\" src=\"img/prizes/bear.png\"></img><img id=\"box\" src=\"img/empty/redopenbox.png\"></img></div>",
        "key_press": null,
        "trial_type": "html-keyboard-response",
        "trial_index": 50,
        "time_elapsed": 466461,
        "internal_node_id": "0.0-18.13-1.13"
    },
    {
        "rt": 770.3449999971781,
        "stimulus": "<p>Choose a box,</p>",
        "button_pressed": 3,
        "trial_type": "html-button-response",
        "trial_index": 51,
        "time_elapsed": 467232,
        "internal_node_id": "0.0-18.14-0.14"
    },
    {
        "rate": 0.9201971434912078,
        "trial_type": "html-keyboard-response",
        "trial_index": 52,
        "time_elapsed": 467232,
        "internal_node_id": "0.0-18.14-1.14"
    },
    {
        "rt": null,
        "stimulus": "<div style=\"background-color:#6dce98\"><h1 style=\"background-color:MediumSeaGreen\" >You won a prize! Well done!</h1><div style=\"background-color:#6dce98\"><h1 style=\"background-color:MediumSeaGreen\" >Only 12 left to go!</h1><img id=\"box\" src=\"img/prizes/ring.png\"></img><img id=\"box\" src=\"img/empty/redopenbox.png\"></img></div>",
        "key_press": null,
        "trial_type": "html-keyboard-response",
        "trial_index": 52,
        "time_elapsed": 468742,
        "internal_node_id": "0.0-18.14-1.14"
    },
    {
        "rt": 652.2399999957997,
        "stimulus": "<p>Choose a box,</p>",
        "button_pressed": 3,
        "trial_type": "html-button-response",
        "trial_index": 53,
        "time_elapsed": 469395,
        "internal_node_id": "0.0-18.15-0.15"
    },
    {
        "rate": 0.9201971434912078,
        "trial_type": "html-keyboard-response",
        "trial_index": 54,
        "time_elapsed": 469395,
        "internal_node_id": "0.0-18.15-1.15"
    },
    {
        "rt": null,
        "stimulus": "<div style=\"background-color:#6dce98\"><h1 style=\"background-color:MediumSeaGreen\" >You won a prize! Well done!</h1><div style=\"background-color:#6dce98\"><h1 style=\"background-color:MediumSeaGreen\" >Only 11 left to go!</h1><img id=\"box\" src=\"img/prizes/flowers.png\"></img><img id=\"box\" src=\"img/empty/redopenbox.png\"></img></div>",
        "key_press": null,
        "trial_type": "html-keyboard-response",
        "trial_index": 54,
        "time_elapsed": 470908,
        "internal_node_id": "0.0-18.15-1.15"
    },
    {
        "rt": 667.6900000020396,
        "stimulus": "<p>Choose a box,</p>",
        "button_pressed": 3,
        "trial_type": "html-button-response",
        "trial_index": 55,
        "time_elapsed": 471576,
        "internal_node_id": "0.0-18.16-0.16"
    },
    {
        "rate": 0.9201971434912078,
        "trial_type": "html-keyboard-response",
        "trial_index": 56,
        "time_elapsed": 471577,
        "internal_node_id": "0.0-18.16-1.16"
    },
    {
        "rt": null,
        "stimulus": "<div style=\"background-color:#6dce98\"><h1 style=\"background-color:MediumSeaGreen\" >You won a prize! Well done!</h1><div style=\"background-color:#6dce98\"><h1 style=\"background-color:MediumSeaGreen\" >Only 10 left to go!</h1><img id=\"box\" src=\"img/prizes/coins.png\"></img><img id=\"box\" src=\"img/empty/redopenbox.png\"></img></div>",
        "key_press": null,
        "trial_type": "html-keyboard-response",
        "trial_index": 56,
        "time_elapsed": 473085,
        "internal_node_id": "0.0-18.16-1.16"
    },
    {
        "rt": 607.5500000006286,
        "stimulus": "<p>Choose a box,</p>",
        "button_pressed": 3,
        "trial_type": "html-button-response",
        "trial_index": 57,
        "time_elapsed": 473694,
        "internal_node_id": "0.0-18.17-0.17"
    },
    {
        "rate": 0.9201971434912078,
        "trial_type": "html-keyboard-response",
        "trial_index": 58,
        "time_elapsed": 473694,
        "internal_node_id": "0.0-18.17-1.17"
    },
    {
        "rt": null,
        "stimulus": "<div style=\"background-color:#6dce98\"><h1 style=\"background-color:MediumSeaGreen\" >You won a prize! Well done!</h1><div style=\"background-color:#6dce98\"><h1 style=\"background-color:MediumSeaGreen\" >Only 9 left to go!</h1><img id=\"box\" src=\"img/prizes/ring.png\"></img><img id=\"box\" src=\"img/empty/redopenbox.png\"></img></div>",
        "key_press": null,
        "trial_type": "html-keyboard-response",
        "trial_index": 58,
        "time_elapsed": 475204,
        "internal_node_id": "0.0-18.17-1.17"
    },
    {
        "rt": 631.1350000032689,
        "stimulus": "<p>Choose a box,</p>",
        "button_pressed": 3,
        "trial_type": "html-button-response",
        "trial_index": 59,
        "time_elapsed": 475836,
        "internal_node_id": "0.0-18.18-0.18"
    },
    {
        "rate": 0.9201971434912078,
        "trial_type": "html-keyboard-response",
        "trial_index": 60,
        "time_elapsed": 475836,
        "internal_node_id": "0.0-18.18-1.18"
    },
    {
        "rt": null,
        "stimulus": "<div style=\"background-color:#6dce98\"><h1 style=\"background-color:MediumSeaGreen\" >You won a prize! Well done!</h1><div style=\"background-color:#6dce98\"><h1 style=\"background-color:MediumSeaGreen\" >Only 8 left to go!</h1><img id=\"box\" src=\"img/prizes/lolipop.png\"></img><img id=\"box\" src=\"img/empty/redopenbox.png\"></img></div>",
        "key_press": null,
        "trial_type": "html-keyboard-response",
        "trial_index": 60,
        "time_elapsed": 477339,
        "internal_node_id": "0.0-18.18-1.18"
    },
    {
        "rt": 640.2200000011362,
        "stimulus": "<p>Choose a box,</p>",
        "button_pressed": 3,
        "trial_type": "html-button-response",
        "trial_index": 61,
        "time_elapsed": 477980,
        "internal_node_id": "0.0-18.19-0.19"
    },
    {
        "rate": 0.9201971434912078,
        "trial_type": "html-keyboard-response",
        "trial_index": 62,
        "time_elapsed": 477981,
        "internal_node_id": "0.0-18.19-1.19"
    },
    {
        "rt": null,
        "stimulus": "<div style=\"background-color:#6dce98\"><h1 style=\"background-color:MediumSeaGreen\" >You won a prize! Well done!</h1><div style=\"background-color:#6dce98\"><h1 style=\"background-color:MediumSeaGreen\" >Only 7 left to go!</h1><img id=\"box\" src=\"img/prizes/duck.png\"></img><img id=\"box\" src=\"img/empty/redopenbox.png\"></img></div>",
        "key_press": null,
        "trial_type": "html-keyboard-response",
        "trial_index": 62,
        "time_elapsed": 479487,
        "internal_node_id": "0.0-18.19-1.19"
    },
    {
        "rt": 638.1400000100257,
        "stimulus": "<p>Choose a box,</p>",
        "button_pressed": 3,
        "trial_type": "html-button-response",
        "trial_index": 63,
        "time_elapsed": 480126,
        "internal_node_id": "0.0-18.20-0.20"
    },
    {
        "rate": 0.9201971434912078,
        "trial_type": "html-keyboard-response",
        "trial_index": 64,
        "time_elapsed": 480126,
        "internal_node_id": "0.0-18.20-1.20"
    },
    {
        "rt": null,
        "stimulus": "<div style=\"background-color:#6dce98\"><h1 style=\"background-color:MediumSeaGreen\" >You won a prize! Well done!</h1><div style=\"background-color:#6dce98\"><h1 style=\"background-color:MediumSeaGreen\" >Only 6 left to go!</h1><img id=\"box\" src=\"img/prizes/flowers.png\"></img><img id=\"box\" src=\"img/empty/redopenbox.png\"></img></div>",
        "key_press": null,
        "trial_type": "html-keyboard-response",
        "trial_index": 64,
        "time_elapsed": 481628,
        "internal_node_id": "0.0-18.20-1.20"
    },
    {
        "rt": 654.5699999987846,
        "stimulus": "<p>Choose a box,</p>",
        "button_pressed": 3,
        "trial_type": "html-button-response",
        "trial_index": 65,
        "time_elapsed": 482283,
        "internal_node_id": "0.0-18.21-0.21"
    },
    {
        "rate": 0.9201971434912078,
        "trial_type": "html-keyboard-response",
        "trial_index": 66,
        "time_elapsed": 482283,
        "internal_node_id": "0.0-18.21-1.21"
    },
    {
        "rt": null,
        "stimulus": "<div style=\"background-color:#6dce98\"><h1 style=\"background-color:MediumSeaGreen\" >You won a prize! Well done!</h1><div style=\"background-color:#6dce98\"><h1 style=\"background-color:MediumSeaGreen\" >Only 5 left to go!</h1><img id=\"box\" src=\"img/prizes/yoyo.png\"></img><img id=\"box\" src=\"img/empty/redopenbox.png\"></img></div>",
        "key_press": null,
        "trial_type": "html-keyboard-response",
        "trial_index": 66,
        "time_elapsed": 483785,
        "internal_node_id": "0.0-18.21-1.21"
    },
    {
        "rt": 633.3449999947334,
        "stimulus": "<p>Choose a box,</p>",
        "button_pressed": 3,
        "trial_type": "html-button-response",
        "trial_index": 67,
        "time_elapsed": 484419,
        "internal_node_id": "0.0-18.22-0.22"
    },
    {
        "rate": 0.9201971434912078,
        "trial_type": "html-keyboard-response",
        "trial_index": 68,
        "time_elapsed": 484420,
        "internal_node_id": "0.0-18.22-1.22"
    },
    {
        "rt": null,
        "stimulus": "<div style=\"background-color:#6dce98\"><h1 style=\"background-color:MediumSeaGreen\" >You won a prize! Well done!</h1><div style=\"background-color:#6dce98\"><h1 style=\"background-color:MediumSeaGreen\" >Only 4 left to go!</h1><img id=\"box\" src=\"img/prizes/lolipop.png\"></img><img id=\"box\" src=\"img/empty/redopenbox.png\"></img></div>",
        "key_press": null,
        "trial_type": "html-keyboard-response",
        "trial_index": 68,
        "time_elapsed": 485923,
        "internal_node_id": "0.0-18.22-1.22"
    },
    {
        "rt": 623.0150000046706,
        "stimulus": "<p>Choose a box,</p>",
        "button_pressed": 3,
        "trial_type": "html-button-response",
        "trial_index": 69,
        "time_elapsed": 486547,
        "internal_node_id": "0.0-18.23-0.23"
    },
    {
        "rate": 0.9201971434912078,
        "trial_type": "html-keyboard-response",
        "trial_index": 70,
        "time_elapsed": 486547,
        "internal_node_id": "0.0-18.23-1.23"
    },
    {
        "rt": null,
        "stimulus": "<div style=\"background-color:#6dce98\"><h1 style=\"background-color:MediumSeaGreen\" >You won a prize! Well done!</h1><div style=\"background-color:#6dce98\"><h1 style=\"background-color:MediumSeaGreen\" >Only 3 left to go!</h1><img id=\"box\" src=\"img/prizes/flowers.png\"></img><img id=\"box\" src=\"img/empty/redopenbox.png\"></img></div>",
        "key_press": null,
        "trial_type": "html-keyboard-response",
        "trial_index": 70,
        "time_elapsed": 488048,
        "internal_node_id": "0.0-18.23-1.23"
    },
    {
        "rt": 649.4300000049407,
        "stimulus": "<p>Choose a box,</p>",
        "button_pressed": 3,
        "trial_type": "html-button-response",
        "trial_index": 71,
        "time_elapsed": 488699,
        "internal_node_id": "0.0-18.24-0.24"
    },
    {
        "rate": 0.9201971434912078,
        "trial_type": "html-keyboard-response",
        "trial_index": 72,
        "time_elapsed": 488699,
        "internal_node_id": "0.0-18.24-1.24"
    },
    {
        "rt": null,
        "stimulus": "<div style=\"background-color:#6dce98\"><h1 style=\"background-color:MediumSeaGreen\" >You won a prize! Well done!</h1><div style=\"background-color:#6dce98\"><h1 style=\"background-color:MediumSeaGreen\" >Only 2 left to go!</h1><img id=\"box\" src=\"img/prizes/bear.png\"></img><img id=\"box\" src=\"img/empty/redopenbox.png\"></img></div>",
        "key_press": null,
        "trial_type": "html-keyboard-response",
        "trial_index": 72,
        "time_elapsed": 490202,
        "internal_node_id": "0.0-18.24-1.24"
    },
    {
        "rt": 419.10500000813045,
        "stimulus": "<p>Choose a box,</p>",
        "button_pressed": 3,
        "trial_type": "html-button-response",
        "trial_index": 73,
        "time_elapsed": 490621,
        "internal_node_id": "0.0-18.25-0.25"
    },
    {
        "rate": 0.9201971434912078,
        "trial_type": "html-keyboard-response",
        "trial_index": 74,
        "time_elapsed": 490622,
        "internal_node_id": "0.0-18.25-1.25"
    },
    {
        "rt": null,
        "stimulus": "<div style=\"background-color:#6dce98\"><h1 style=\"background-color:MediumSeaGreen\" >You won a prize! Well done!</h1><div style=\"background-color:#6dce98\"><h1 style=\"background-color:MediumSeaGreen\" >Only 1 left to go!</h1><img id=\"box\" src=\"img/prizes/beachball.png\"></img><img id=\"box\" src=\"img/empty/redopenbox.png\"></img></div>",
        "key_press": null,
        "trial_type": "html-keyboard-response",
        "trial_index": 74,
        "time_elapsed": 492127,
        "internal_node_id": "0.0-18.25-1.25"
    },
    {
        "rt": 737.4300000083167,
        "stimulus": "<p>Choose a box,</p>",
        "button_pressed": 3,
        "trial_type": "html-button-response",
        "trial_index": 75,
        "time_elapsed": 492865,
        "internal_node_id": "0.0-18.26-0.26"
    },
    {
        "rate": 0.9201971434912078,
        "trial_type": "html-keyboard-response",
        "trial_index": 76,
        "time_elapsed": 492865,
        "internal_node_id": "0.0-18.26-1.26"
    },
    {
        "rt": null,
        "stimulus": "<div style=\"background-color:#6dce98\"><h1 style=\"background-color:MediumSeaGreen\" >You won a prize! Well done!</h1><div style=\"background-color:#6dce98\"><h1 style=\"background-color:MediumSeaGreen\" >Only 0 left to go!</h1><img id=\"box\" src=\"img/prizes/coins.png\"></img><img id=\"box\" src=\"img/empty/redopenbox.png\"></img></div>",
        "key_press": null,
        "trial_type": "html-keyboard-response",
        "trial_index": 76,
        "time_elapsed": 494369,
        "internal_node_id": "0.0-18.26-1.26"
    },
    {
        "rt": 79034.50000000885,
        "responses": "{\"Q0\":\"Not quite sure what it designed to achieve. Some of the questions were a little vague.\",\"Q1\":\"Trial and error - trying to find a pattern - then consistently went for the same box.\"}",
        "trial_type": "survey-text",
        "trial_index": 77,
        "time_elapsed": 573412,
        "internal_node_id": "0.0-19.0"
    }
]