[{"view_history":"[{\"page_index\":0,\"viewing_time\":893.0699999909848},{\"page_index\":1,\"viewing_time\":401.4249999891035},{\"page_index\":2,\"viewing_time\":535.9700000262819},{\"page_index\":3,\"viewing_time\":526.9049999769777},{\"page_index\":4,\"viewing_time\":476.634999999078},{\"page_index\":5,\"viewing_time\":748.6700000008568}]","rt":3583.8999999978114,"trial_type":"instructions","trial_index":0,"time_elapsed":3587,"internal_node_id":"0.0-0.0"},{"rt":2996.8449999869335,"responses":"{\"Q0\":\"Yes\",\"Q1\":\"Yes\",\"Q2\":\"Yes\"}","question_order":"[0,1,2]","trial_type":"survey-multi-choice","trial_index":1,"time_elapsed":6587,"internal_node_id":"0.0-1.0-0.0"},{"rt":2775.450000015553,"responses":"{\"Q0\":\"Yes\",\"Q1\":\"Yes\",\"Q2\":\"Yes\"}","question_order":"[0,1,2]","trial_type":"survey-multi-choice","trial_index":2,"time_elapsed":9368,"internal_node_id":"0.0-2.0-0.0"},{"rt":1998.8499999744818,"responses":"{\"Q0\":\"8878\"}","trial_type":"survey-text","trial_index":3,"time_elapsed":11375,"internal_node_id":"0.0-3.0"},{"rt":2450.6949999777135,"responses":"{\"Q0\":\"Female\",\"Q1\":\"18-25\"}","question_order":"[0,1]","trial_type":"survey-multi-choice","trial_index":4,"time_elapsed":13828,"internal_node_id":"0.0-4.0"},{"view_history":"[{\"page_index\":0,\"viewing_time\":727.1450000116602}]","rt":727.5599999993574,"trial_type":"instructions","trial_index":5,"time_elapsed":14559,"internal_node_id":"0.0-5.0"},{"rt":3243.3550000132527,"responses":"{\"Interested\":2,\"Distressed\":1,\"Excited\":2,\"Upset\":3}","question_order":"[0,1,2,3]","trial_type":"survey-likert","trial_index":6,"time_elapsed":17806,"internal_node_id":"0.0-6.0"},{"rt":3228.220000019064,"responses":"{\"Strong\":3,\"Guilty\":1,\"Scared\":2,\"Hostile\":3}","question_order":"[0,1,2,3]","trial_type":"survey-likert","trial_index":7,"time_elapsed":21039,"internal_node_id":"0.0-7.0"},{"rt":4797.479999979259,"responses":"{\"Enthusiastic\":2,\"Proud\":1,\"Irritable\":0,\"Alert\":3}","question_order":"[0,1,2,3]","trial_type":"survey-likert","trial_index":8,"time_elapsed":25843,"internal_node_id":"0.0-8.0"},{"rt":4036.724999983562,"responses":"{\"Ashamed\":2,\"Inspired\":1,\"Nervous\":0,\"Determined\":1}","question_order":"[0,1,2,3]","trial_type":"survey-likert","trial_index":9,"time_elapsed":29887,"internal_node_id":"0.0-9.0"},{"rt":3999.890000006417,"responses":"{\"Attentive\":3,\"Jittery\":1,\"Active\":2,\"Afraid\":3}","question_order":"[0,1,2,3]","trial_type":"survey-likert","trial_index":10,"time_elapsed":33894,"internal_node_id":"0.0-10.0"},{"rt":3243.0900000035763,"responses":"{\"Q0\":2,\"Q1\":1,\"Q2\":0,\"Q3\":1}","question_order":"[0,1,2,3]","trial_type":"survey-likert","trial_index":11,"time_elapsed":37143,"internal_node_id":"0.0-11.0"},{"rt":3119.009999994887,"responses":"{\"Q0\":1,\"Q1\":2,\"Q2\":3,\"Q3\":2}","question_order":"[0,1,2,3]","trial_type":"survey-likert","trial_index":12,"time_elapsed":40267,"internal_node_id":"0.0-12.0"},{"rt":3227.3649999988265,"responses":"{\"Q0\":1,\"Q1\":2,\"Q2\":1,\"Q3\":0}","question_order":"[0,1,2,3]","trial_type":"survey-likert","trial_index":13,"time_elapsed":43500,"internal_node_id":"0.0-13.0"},{"rt":3572.8499999968335,"responses":"{\"Q0\":1,\"Q1\":2,\"Q2\":1}","question_order":"[0,1,2]","trial_type":"survey-likert","trial_index":14,"time_elapsed":47078,"internal_node_id":"0.0-14.0"},{"view_history":"[{\"page_index\":0,\"viewing_time\":812.2150000126567},{\"page_index\":1,\"viewing_time\":995.3799999784678},{\"page_index\":2,\"viewing_time\":976.5450000122655}]","rt":2784.6600000048056,"trial_type":"instructions","trial_index":15,"time_elapsed":49871,"internal_node_id":"0.0-15.0"},{"rt":600.155000021914,"stimulus":"<p>Choose a box,</p>","button_pressed":1,"trial_type":"html-button-response","trial_index":16,"time_elapsed":50474,"internal_node_id":"0.0-16.0-0.0"},{"rate":0.06445281865328449,"trial_type":"html-keyboard-response","trial_index":17,"time_elapsed":50475,"internal_node_id":"0.0-16.0-1.0"},{"rt":null,"stimulus":"<div style=\"background-color:#ff7157\"><h1 style=\"background-color:Tomato\">Bad luck! There was no prize in the box!</h1><h1 style=\"background-color:Tomato\">Remember, you need to have 20 prizes to finish!</h1><img id=\"box\" src=\"img/sad/greenopenboxsadthumb.png\"></img></div>","key_press":null,"trial_type":"html-keyboard-response","trial_index":17,"time_elapsed":51977,"internal_node_id":"0.0-16.0-1.0"},{"rt":417.8200000023935,"stimulus":"<p>Choose a box,</p>","button_pressed":2,"trial_type":"html-button-response","trial_index":18,"time_elapsed":52397,"internal_node_id":"0.0-16.0-0.1"},{"rate":0.27365695542461,"trial_type":"html-keyboard-response","trial_index":19,"time_elapsed":52398,"internal_node_id":"0.0-16.0-1.1"},{"rt":null,"stimulus":"<div style=\"background-color:#ff7157\"><h1 style=\"background-color:Tomato\">Bad luck! There was no prize in the box!</h1><h1 style=\"background-color:Tomato\">Remember, you need to have 20 prizes to finish!</h1><img id=\"box\" src=\"img/sad/purpleopenboxsadthumb.png\"></img></div>","key_press":null,"trial_type":"html-keyboard-response","trial_index":19,"time_elapsed":53899,"internal_node_id":"0.0-16.0-1.1"},{"rt":405.2500000107102,"stimulus":"<p>Choose a box,</p>","button_pressed":3,"trial_type":"html-button-response","trial_index":20,"time_elapsed":54307,"internal_node_id":"0.0-16.0-0.2"},{"rate":0.7137566777062472,"trial_type":"html-keyboard-response","trial_index":21,"time_elapsed":54307,"internal_node_id":"0.0-16.0-1.2"},{"rt":null,"stimulus":"<div style=\"background-color:#6dce98\"><h1 style=\"background-color:MediumSeaGreen\" >You won a prize! Well done!</h1><div style=\"background-color:#6dce98\"><h1 style=\"background-color:MediumSeaGreen\" >Only19 left to go!</h1><img id=\"box\" src=\"img/prizes/flowers.png\"></img><img id=\"box\" src=\"img/empty/redopenbox.png\"></img></div>","key_press":null,"trial_type":"html-keyboard-response","trial_index":21,"time_elapsed":55814,"internal_node_id":"0.0-16.0-1.2"},{"view_history":"[{\"page_index\":0,\"viewing_time\":10772.560000012163}]","rt":10773.114999989048,"trial_type":"instructions","trial_index":22,"time_elapsed":66589,"internal_node_id":"0.0-17.0"},{"rt":540.8599999791477,"stimulus":"<p>Choose a box,</p>","button_pressed":2,"trial_type":"html-button-response","trial_index":23,"time_elapsed":67132,"internal_node_id":"0.0-18.0-0.0"},{"rate":0.8205821844950066,"trial_type":"html-keyboard-response","trial_index":24,"time_elapsed":67133,"internal_node_id":"0.0-18.0-1.0"},{"rt":null,"stimulus":"<div style=\"background-color:#6dce98\"><h1 style=\"background-color:MediumSeaGreen\" >You won a prize! Well done!</h1><div style=\"background-color:#6dce98\"><h1 style=\"background-color:MediumSeaGreen\" >Only19 left to go!</h1><img id=\"box\" src=\"img/prizes/coins.png\"></img><img id=\"box\" src=\"img/empty/purpleopenbox.png\"></img></div>","key_press":null,"trial_type":"html-keyboard-response","trial_index":24,"time_elapsed":68638,"internal_node_id":"0.0-18.0-1.0"},{"rt":358.91999999876134,"stimulus":"<p>Choose a box,</p>","button_pressed":1,"trial_type":"html-button-response","trial_index":25,"time_elapsed":68999,"internal_node_id":"0.0-18.1-0.1"},{"rate":0.37591938892703985,"trial_type":"html-keyboard-response","trial_index":26,"time_elapsed":69000,"internal_node_id":"0.0-18.1-1.1"},{"rt":null,"stimulus":"<div style=\"background-color:#6dce98\"><h1 style=\"background-color:MediumSeaGreen\" >You won a prize! Well done!</h1><div style=\"background-color:#6dce98\"><h1 style=\"background-color:MediumSeaGreen\" >Only18 left to go!</h1><img id=\"box\" src=\"img/prizes/lolipop.png\"></img><img id=\"box\" src=\"img/empty/greenopenbox.png\"></img></div>","key_press":null,"trial_type":"html-keyboard-response","trial_index":26,"time_elapsed":70504,"internal_node_id":"0.0-18.1-1.1"},{"rt":336.3450000179,"stimulus":"<p>Choose a box,</p>","button_pressed":0,"trial_type":"html-button-response","trial_index":27,"time_elapsed":70843,"internal_node_id":"0.0-18.2-0.2"},{"rate":0.22781714940978445,"trial_type":"html-keyboard-response","trial_index":28,"time_elapsed":70843,"internal_node_id":"0.0-18.2-1.2"},{"rt":null,"stimulus":"<div style=\"background-color:#ff7157\"><h1 style=\"background-color:Tomato\">Bad luck! There was no prize in the box!</h1><h1 style=\"background-color:Tomato\">Remember, you need to have 20 prizes to finish!</h1><img id=\"box\" src=\"img/sad/blueopenboxsadthumb.png\"></img></div>","key_press":null,"trial_type":"html-keyboard-response","trial_index":28,"time_elapsed":72345,"internal_node_id":"0.0-18.2-1.2"},{"rt":385.519999981625,"stimulus":"<p>Choose a box,</p>","button_pressed":1,"trial_type":"html-button-response","trial_index":29,"time_elapsed":72732,"internal_node_id":"0.0-18.3-0.3"},{"rate":0.37591938892703985,"trial_type":"html-keyboard-response","trial_index":30,"time_elapsed":72733,"internal_node_id":"0.0-18.3-1.3"},{"rt":null,"stimulus":"<div style=\"background-color:#ff7157\"><h1 style=\"background-color:Tomato\">Bad luck! There was no prize in the box!</h1><h1 style=\"background-color:Tomato\">Remember, you need to have 20 prizes to finish!</h1><img id=\"box\" src=\"img/sad/greenopenboxsadthumb.png\"></img></div>","key_press":null,"trial_type":"html-keyboard-response","trial_index":30,"time_elapsed":74236,"internal_node_id":"0.0-18.3-1.3"},{"rt":353.44499998609535,"stimulus":"<p>Choose a box,</p>","button_pressed":0,"trial_type":"html-button-response","trial_index":31,"time_elapsed":74591,"internal_node_id":"0.0-18.4-0.4"},{"rate":0.22781714940978445,"trial_type":"html-keyboard-response","trial_index":32,"time_elapsed":74591,"internal_node_id":"0.0-18.4-1.4"},{"rt":null,"stimulus":"<div style=\"background-color:#ff7157\"><h1 style=\"background-color:Tomato\">Bad luck! There was no prize in the box!</h1><h1 style=\"background-color:Tomato\">Remember, you need to have 20 prizes to finish!</h1><img id=\"box\" src=\"img/sad/blueopenboxsadthumb.png\"></img></div>","key_press":null,"trial_type":"html-keyboard-response","trial_index":32,"time_elapsed":76092,"internal_node_id":"0.0-18.4-1.4"},{"rt":456.2799999839626,"stimulus":"<p>Choose a box,</p>","button_pressed":1,"trial_type":"html-button-response","trial_index":33,"time_elapsed":76549,"internal_node_id":"0.0-18.5-0.5"},{"rate":0.37591938892703985,"trial_type":"html-keyboard-response","trial_index":34,"time_elapsed":76549,"internal_node_id":"0.0-18.5-1.5"},{"rt":null,"stimulus":"<div style=\"background-color:#ff7157\"><h1 style=\"background-color:Tomato\">Bad luck! There was no prize in the box!</h1><h1 style=\"background-color:Tomato\">Remember, you need to have 20 prizes to finish!</h1><img id=\"box\" src=\"img/sad/greenopenboxsadthumb.png\"></img></div>","key_press":null,"trial_type":"html-keyboard-response","trial_index":34,"time_elapsed":78055,"internal_node_id":"0.0-18.5-1.5"},{"rt":596.5450000076089,"stimulus":"<p>Choose a box,</p>","button_pressed":3,"trial_type":"html-button-response","trial_index":35,"time_elapsed":78654,"internal_node_id":"0.0-18.6-0.6"},{"rate":0.6613841584710779,"trial_type":"html-keyboard-response","trial_index":36,"time_elapsed":78654,"internal_node_id":"0.0-18.6-1.6"},{"rt":null,"stimulus":"<div style=\"background-color:#ff7157\"><h1 style=\"background-color:Tomato\">Bad luck! There was no prize in the box!</h1><h1 style=\"background-color:Tomato\">Remember, you need to have 20 prizes to finish!</h1><img id=\"box\" src=\"img/sad/redopenboxsadthumb.png\"></img></div>","key_press":null,"trial_type":"html-keyboard-response","trial_index":36,"time_elapsed":80157,"internal_node_id":"0.0-18.6-1.6"},{"rt":221.13499999977648,"stimulus":"<p>Choose a box,</p>","button_pressed":2,"trial_type":"html-button-response","trial_index":37,"time_elapsed":80381,"internal_node_id":"0.0-18.7-0.7"},{"rate":0.8205821844950066,"trial_type":"html-keyboard-response","trial_index":38,"time_elapsed":80381,"internal_node_id":"0.0-18.7-1.7"},{"rt":null,"stimulus":"<div style=\"background-color:#6dce98\"><h1 style=\"background-color:MediumSeaGreen\" >You won a prize! Well done!</h1><div style=\"background-color:#6dce98\"><h1 style=\"background-color:MediumSeaGreen\" >Only17 left to go!</h1><img id=\"box\" src=\"img/prizes/lolipop.png\"></img><img id=\"box\" src=\"img/empty/purpleopenbox.png\"></img></div>","key_press":null,"trial_type":"html-keyboard-response","trial_index":38,"time_elapsed":81885,"internal_node_id":"0.0-18.7-1.7"},{"rt":278.98000000277534,"stimulus":"<p>Choose a box,</p>","button_pressed":2,"trial_type":"html-button-response","trial_index":39,"time_elapsed":82167,"internal_node_id":"0.0-18.8-0.8"},{"rate":0.8205821844950066,"trial_type":"html-keyboard-response","trial_index":40,"time_elapsed":82167,"internal_node_id":"0.0-18.8-1.8"},{"rt":null,"stimulus":"<div style=\"background-color:#6dce98\"><h1 style=\"background-color:MediumSeaGreen\" >You won a prize! Well done!</h1><div style=\"background-color:#6dce98\"><h1 style=\"background-color:MediumSeaGreen\" >Only16 left to go!</h1><img id=\"box\" src=\"img/prizes/beachball.png\"></img><img id=\"box\" src=\"img/empty/purpleopenbox.png\"></img></div>","key_press":null,"trial_type":"html-keyboard-response","trial_index":40,"time_elapsed":83673,"internal_node_id":"0.0-18.8-1.8"},{"rt":134.86000002012588,"stimulus":"<p>Choose a box,</p>","button_pressed":2,"trial_type":"html-button-response","trial_index":41,"time_elapsed":83810,"internal_node_id":"0.0-18.9-0.9"},{"rate":0.8205821844950066,"trial_type":"html-keyboard-response","trial_index":42,"time_elapsed":83811,"internal_node_id":"0.0-18.9-1.9"},{"rt":null,"stimulus":"<div style=\"background-color:#6dce98\"><h1 style=\"background-color:MediumSeaGreen\" >You won a prize! Well done!</h1><div style=\"background-color:#6dce98\"><h1 style=\"background-color:MediumSeaGreen\" >Only15 left to go!</h1><img id=\"box\" src=\"img/prizes/flowers.png\"></img><img id=\"box\" src=\"img/empty/purpleopenbox.png\"></img></div>","key_press":null,"trial_type":"html-keyboard-response","trial_index":42,"time_elapsed":85317,"internal_node_id":"0.0-18.9-1.9"},{"rt":268.0199999886099,"stimulus":"<p>Choose a box,</p>","button_pressed":2,"trial_type":"html-button-response","trial_index":43,"time_elapsed":85588,"internal_node_id":"0.0-18.10-0.10"},{"rate":0.8205821844950066,"trial_type":"html-keyboard-response","trial_index":44,"time_elapsed":85588,"internal_node_id":"0.0-18.10-1.10"},{"rt":null,"stimulus":"<div style=\"background-color:#6dce98\"><h1 style=\"background-color:MediumSeaGreen\" >You won a prize! Well done!</h1><div style=\"background-color:#6dce98\"><h1 style=\"background-color:MediumSeaGreen\" >Only14 left to go!</h1><img id=\"box\" src=\"img/prizes/choc.png\"></img><img id=\"box\" src=\"img/empty/purpleopenbox.png\"></img></div>","key_press":null,"trial_type":"html-keyboard-response","trial_index":44,"time_elapsed":87091,"internal_node_id":"0.0-18.10-1.10"},{"rt":278.93000000040047,"stimulus":"<p>Choose a box,</p>","button_pressed":2,"trial_type":"html-button-response","trial_index":45,"time_elapsed":87372,"internal_node_id":"0.0-18.11-0.11"},{"rate":0.8205821844950066,"trial_type":"html-keyboard-response","trial_index":46,"time_elapsed":87372,"internal_node_id":"0.0-18.11-1.11"},{"rt":null,"stimulus":"<div style=\"background-color:#6dce98\"><h1 style=\"background-color:MediumSeaGreen\" >You won a prize! Well done!</h1><div style=\"background-color:#6dce98\"><h1 style=\"background-color:MediumSeaGreen\" >Only13 left to go!</h1><img id=\"box\" src=\"img/prizes/choc.png\"></img><img id=\"box\" src=\"img/empty/purpleopenbox.png\"></img></div>","key_press":null,"trial_type":"html-keyboard-response","trial_index":46,"time_elapsed":88878,"internal_node_id":"0.0-18.11-1.11"},{"rt":382.5799999758601,"stimulus":"<p>Choose a box,</p>","button_pressed":2,"trial_type":"html-button-response","trial_index":47,"time_elapsed":89263,"internal_node_id":"0.0-18.12-0.12"},{"rate":0.8205821844950066,"trial_type":"html-keyboard-response","trial_index":48,"time_elapsed":89263,"internal_node_id":"0.0-18.12-1.12"},{"rt":null,"stimulus":"<div style=\"background-color:#6dce98\"><h1 style=\"background-color:MediumSeaGreen\" >You won a prize! Well done!</h1><div style=\"background-color:#6dce98\"><h1 style=\"background-color:MediumSeaGreen\" >Only12 left to go!</h1><img id=\"box\" src=\"img/prizes/ring.png\"></img><img id=\"box\" src=\"img/empty/purpleopenbox.png\"></img></div>","key_press":null,"trial_type":"html-keyboard-response","trial_index":48,"time_elapsed":90768,"internal_node_id":"0.0-18.12-1.12"},{"rt":317.3349999997299,"stimulus":"<p>Choose a box,</p>","button_pressed":2,"trial_type":"html-button-response","trial_index":49,"time_elapsed":91088,"internal_node_id":"0.0-18.13-0.13"},{"rate":0.8205821844950066,"trial_type":"html-keyboard-response","trial_index":50,"time_elapsed":91088,"internal_node_id":"0.0-18.13-1.13"},{"rt":null,"stimulus":"<div style=\"background-color:#6dce98\"><h1 style=\"background-color:MediumSeaGreen\" >You won a prize! Well done!</h1><div style=\"background-color:#6dce98\"><h1 style=\"background-color:MediumSeaGreen\" >Only11 left to go!</h1><img id=\"box\" src=\"img/prizes/yoyo.png\"></img><img id=\"box\" src=\"img/empty/purpleopenbox.png\"></img></div>","key_press":null,"trial_type":"html-keyboard-response","trial_index":50,"time_elapsed":92591,"internal_node_id":"0.0-18.13-1.13"},{"rt":270.98999998997897,"stimulus":"<p>Choose a box,</p>","button_pressed":2,"trial_type":"html-button-response","trial_index":51,"time_elapsed":92865,"internal_node_id":"0.0-18.14-0.14"},{"rate":0.8205821844950066,"trial_type":"html-keyboard-response","trial_index":52,"time_elapsed":92865,"internal_node_id":"0.0-18.14-1.14"},{"rt":null,"stimulus":"<div style=\"background-color:#6dce98\"><h1 style=\"background-color:MediumSeaGreen\" >You won a prize! Well done!</h1><div style=\"background-color:#6dce98\"><h1 style=\"background-color:MediumSeaGreen\" >Only10 left to go!</h1><img id=\"box\" src=\"img/prizes/ring.png\"></img><img id=\"box\" src=\"img/empty/purpleopenbox.png\"></img></div>","key_press":null,"trial_type":"html-keyboard-response","trial_index":52,"time_elapsed":94369,"internal_node_id":"0.0-18.14-1.14"},{"rt":111.99999999371357,"stimulus":"<p>Choose a box,</p>","button_pressed":2,"trial_type":"html-button-response","trial_index":53,"time_elapsed":94483,"internal_node_id":"0.0-18.15-0.15"},{"rate":0.8205821844950066,"trial_type":"html-keyboard-response","trial_index":54,"time_elapsed":94484,"internal_node_id":"0.0-18.15-1.15"},{"rt":null,"stimulus":"<div style=\"background-color:#ff7157\"><h1 style=\"background-color:Tomato\">Bad luck! There was no prize in the box!</h1><h1 style=\"background-color:Tomato\">Remember, you need to have 20 prizes to finish!</h1><img id=\"box\" src=\"img/sad/purpleopenboxsadthumb.png\"></img></div>","key_press":null,"trial_type":"html-keyboard-response","trial_index":54,"time_elapsed":95987,"internal_node_id":"0.0-18.15-1.15"},{"rt":395.3250000195112,"stimulus":"<p>Choose a box,</p>","button_pressed":2,"trial_type":"html-button-response","trial_index":55,"time_elapsed":96384,"internal_node_id":"0.0-18.16-0.16"},{"rate":0.8205821844950066,"trial_type":"html-keyboard-response","trial_index":56,"time_elapsed":96385,"internal_node_id":"0.0-18.16-1.16"},{"rt":null,"stimulus":"<div style=\"background-color:#6dce98\"><h1 style=\"background-color:MediumSeaGreen\" >You won a prize! Well done!</h1><div style=\"background-color:#6dce98\"><h1 style=\"background-color:MediumSeaGreen\" >Only9 left to go!</h1><img id=\"box\" src=\"img/prizes/coins.png\"></img><img id=\"box\" src=\"img/empty/purpleopenbox.png\"></img></div>","key_press":null,"trial_type":"html-keyboard-response","trial_index":56,"time_elapsed":97892,"internal_node_id":"0.0-18.16-1.16"},{"rt":355.8750000083819,"stimulus":"<p>Choose a box,</p>","button_pressed":2,"trial_type":"html-button-response","trial_index":57,"time_elapsed":98250,"internal_node_id":"0.0-18.17-0.17"},{"rate":0.8205821844950066,"trial_type":"html-keyboard-response","trial_index":58,"time_elapsed":98250,"internal_node_id":"0.0-18.17-1.17"},{"rt":null,"stimulus":"<div style=\"background-color:#6dce98\"><h1 style=\"background-color:MediumSeaGreen\" >You won a prize! Well done!</h1><div style=\"background-color:#6dce98\"><h1 style=\"background-color:MediumSeaGreen\" >Only8 left to go!</h1><img id=\"box\" src=\"img/prizes/coins.png\"></img><img id=\"box\" src=\"img/empty/purpleopenbox.png\"></img></div>","key_press":null,"trial_type":"html-keyboard-response","trial_index":58,"time_elapsed":99757,"internal_node_id":"0.0-18.17-1.17"},{"rt":368.6699999962002,"stimulus":"<p>Choose a box,</p>","button_pressed":2,"trial_type":"html-button-response","trial_index":59,"time_elapsed":100128,"internal_node_id":"0.0-18.18-0.18"},{"rate":0.8205821844950066,"trial_type":"html-keyboard-response","trial_index":60,"time_elapsed":100129,"internal_node_id":"0.0-18.18-1.18"},{"rt":null,"stimulus":"<div style=\"background-color:#6dce98\"><h1 style=\"background-color:MediumSeaGreen\" >You won a prize! Well done!</h1><div style=\"background-color:#6dce98\"><h1 style=\"background-color:MediumSeaGreen\" >Only7 left to go!</h1><img id=\"box\" src=\"img/prizes/yoyo.png\"></img><img id=\"box\" src=\"img/empty/purpleopenbox.png\"></img></div>","key_press":null,"trial_type":"html-keyboard-response","trial_index":60,"time_elapsed":101630,"internal_node_id":"0.0-18.18-1.18"},{"rt":228.58999998425134,"stimulus":"<p>Choose a box,</p>","button_pressed":2,"trial_type":"html-button-response","trial_index":61,"time_elapsed":101861,"internal_node_id":"0.0-18.19-0.19"},{"rate":0.8205821844950066,"trial_type":"html-keyboard-response","trial_index":62,"time_elapsed":101864,"internal_node_id":"0.0-18.19-1.19"},{"rt":null,"stimulus":"<div style=\"background-color:#ff7157\"><h1 style=\"background-color:Tomato\">Bad luck! There was no prize in the box!</h1><h1 style=\"background-color:Tomato\">Remember, you need to have 20 prizes to finish!</h1><img id=\"box\" src=\"img/sad/purpleopenboxsadthumb.png\"></img></div>","key_press":null,"trial_type":"html-keyboard-response","trial_index":62,"time_elapsed":103368,"internal_node_id":"0.0-18.19-1.19"},{"rt":553.7750000075903,"stimulus":"<p>Choose a box,</p>","button_pressed":2,"trial_type":"html-button-response","trial_index":63,"time_elapsed":103924,"internal_node_id":"0.0-18.20-0.20"},{"rate":0.8205821844950066,"trial_type":"html-keyboard-response","trial_index":64,"time_elapsed":103924,"internal_node_id":"0.0-18.20-1.20"},{"rt":null,"stimulus":"<div style=\"background-color:#6dce98\"><h1 style=\"background-color:MediumSeaGreen\" >You won a prize! Well done!</h1><div style=\"background-color:#6dce98\"><h1 style=\"background-color:MediumSeaGreen\" >Only6 left to go!</h1><img id=\"box\" src=\"img/prizes/duck.png\"></img><img id=\"box\" src=\"img/empty/purpleopenbox.png\"></img></div>","key_press":null,"trial_type":"html-keyboard-response","trial_index":64,"time_elapsed":105429,"internal_node_id":"0.0-18.20-1.20"},{"rt":228.82499999832362,"stimulus":"<p>Choose a box,</p>","button_pressed":2,"trial_type":"html-button-response","trial_index":65,"time_elapsed":105660,"internal_node_id":"0.0-18.21-0.21"},{"rate":0.8205821844950066,"trial_type":"html-keyboard-response","trial_index":66,"time_elapsed":105660,"internal_node_id":"0.0-18.21-1.21"},{"rt":null,"stimulus":"<div style=\"background-color:#6dce98\"><h1 style=\"background-color:MediumSeaGreen\" >You won a prize! Well done!</h1><div style=\"background-color:#6dce98\"><h1 style=\"background-color:MediumSeaGreen\" >Only5 left to go!</h1><img id=\"box\" src=\"img/prizes/bear.png\"></img><img id=\"box\" src=\"img/empty/purpleopenbox.png\"></img></div>","key_press":null,"trial_type":"html-keyboard-response","trial_index":66,"time_elapsed":107165,"internal_node_id":"0.0-18.21-1.21"},{"rt":355.8199999970384,"stimulus":"<p>Choose a box,</p>","button_pressed":2,"trial_type":"html-button-response","trial_index":67,"time_elapsed":107523,"internal_node_id":"0.0-18.22-0.22"},{"rate":0.8205821844950066,"trial_type":"html-keyboard-response","trial_index":68,"time_elapsed":107523,"internal_node_id":"0.0-18.22-1.22"},{"rt":null,"stimulus":"<div style=\"background-color:#6dce98\"><h1 style=\"background-color:MediumSeaGreen\" >You won a prize! Well done!</h1><div style=\"background-color:#6dce98\"><h1 style=\"background-color:MediumSeaGreen\" >Only4 left to go!</h1><img id=\"box\" src=\"img/prizes/flowers.png\"></img><img id=\"box\" src=\"img/empty/purpleopenbox.png\"></img></div>","key_press":null,"trial_type":"html-keyboard-response","trial_index":68,"time_elapsed":109025,"internal_node_id":"0.0-18.22-1.22"},{"rt":349.92000000784174,"stimulus":"<p>Choose a box,</p>","button_pressed":2,"trial_type":"html-button-response","trial_index":69,"time_elapsed":109377,"internal_node_id":"0.0-18.23-0.23"},{"rate":0.8205821844950066,"trial_type":"html-keyboard-response","trial_index":70,"time_elapsed":109377,"internal_node_id":"0.0-18.23-1.23"},{"rt":null,"stimulus":"<div style=\"background-color:#ff7157\"><h1 style=\"background-color:Tomato\">Bad luck! There was no prize in the box!</h1><h1 style=\"background-color:Tomato\">Remember, you need to have 20 prizes to finish!</h1><img id=\"box\" src=\"img/sad/purpleopenboxsadthumb.png\"></img></div>","key_press":null,"trial_type":"html-keyboard-response","trial_index":70,"time_elapsed":110884,"internal_node_id":"0.0-18.23-1.23"},{"rt":511.9049999921117,"stimulus":"<p>Choose a box,</p>","button_pressed":2,"trial_type":"html-button-response","trial_index":71,"time_elapsed":111398,"internal_node_id":"0.0-18.24-0.24"},{"rate":0.8205821844950066,"trial_type":"html-keyboard-response","trial_index":72,"time_elapsed":111398,"internal_node_id":"0.0-18.24-1.24"},{"rt":null,"stimulus":"<div style=\"background-color:#6dce98\"><h1 style=\"background-color:MediumSeaGreen\" >You won a prize! Well done!</h1><div style=\"background-color:#6dce98\"><h1 style=\"background-color:MediumSeaGreen\" >Only3 left to go!</h1><img id=\"box\" src=\"img/prizes/yoyo.png\"></img><img id=\"box\" src=\"img/empty/purpleopenbox.png\"></img></div>","key_press":null,"trial_type":"html-keyboard-response","trial_index":72,"time_elapsed":112901,"internal_node_id":"0.0-18.24-1.24"},{"rt":371.97000000742264,"stimulus":"<p>Choose a box,</p>","button_pressed":2,"trial_type":"html-button-response","trial_index":73,"time_elapsed":113276,"internal_node_id":"0.0-18.25-0.25"},{"rate":0.8205821844950066,"trial_type":"html-keyboard-response","trial_index":74,"time_elapsed":113276,"internal_node_id":"0.0-18.25-1.25"},{"rt":null,"stimulus":"<div style=\"background-color:#ff7157\"><h1 style=\"background-color:Tomato\">Bad luck! There was no prize in the box!</h1><h1 style=\"background-color:Tomato\">Remember, you need to have 20 prizes to finish!</h1><img id=\"box\" src=\"img/sad/purpleopenboxsadthumb.png\"></img></div>","key_press":null,"trial_type":"html-keyboard-response","trial_index":74,"time_elapsed":114781,"internal_node_id":"0.0-18.25-1.25"},{"rt":365.84499999298714,"stimulus":"<p>Choose a box,</p>","button_pressed":2,"trial_type":"html-button-response","trial_index":75,"time_elapsed":115149,"internal_node_id":"0.0-18.26-0.26"},{"rate":0.8205821844950066,"trial_type":"html-keyboard-response","trial_index":76,"time_elapsed":115149,"internal_node_id":"0.0-18.26-1.26"},{"rt":null,"stimulus":"<div style=\"background-color:#6dce98\"><h1 style=\"background-color:MediumSeaGreen\" >You won a prize! Well done!</h1><div style=\"background-color:#6dce98\"><h1 style=\"background-color:MediumSeaGreen\" >Only2 left to go!</h1><img id=\"box\" src=\"img/prizes/bear.png\"></img><img id=\"box\" src=\"img/empty/purpleopenbox.png\"></img></div>","key_press":null,"trial_type":"html-keyboard-response","trial_index":76,"time_elapsed":116657,"internal_node_id":"0.0-18.26-1.26"},{"rt":356.1699999845587,"stimulus":"<p>Choose a box,</p>","button_pressed":2,"trial_type":"html-button-response","trial_index":77,"time_elapsed":117016,"internal_node_id":"0.0-18.27-0.27"},{"rate":0.8205821844950066,"trial_type":"html-keyboard-response","trial_index":78,"time_elapsed":117016,"internal_node_id":"0.0-18.27-1.27"},{"rt":null,"stimulus":"<div style=\"background-color:#6dce98\"><h1 style=\"background-color:MediumSeaGreen\" >You won a prize! Well done!</h1><div style=\"background-color:#6dce98\"><h1 style=\"background-color:MediumSeaGreen\" >Only1 left to go!</h1><img id=\"box\" src=\"img/prizes/yoyo.png\"></img><img id=\"box\" src=\"img/empty/purpleopenbox.png\"></img></div>","key_press":null,"trial_type":"html-keyboard-response","trial_index":78,"time_elapsed":118518,"internal_node_id":"0.0-18.27-1.27"},{"rt":149.7549999912735,"stimulus":"<p>Choose a box,</p>","button_pressed":2,"trial_type":"html-button-response","trial_index":79,"time_elapsed":118670,"internal_node_id":"0.0-18.28-0.28"},{"rate":0.8205821844950066,"trial_type":"html-keyboard-response","trial_index":80,"time_elapsed":118670,"internal_node_id":"0.0-18.28-1.28"},{"rt":null,"stimulus":"<div style=\"background-color:#6dce98\"><h1 style=\"background-color:MediumSeaGreen\" >You won a prize! Well done!</h1><div style=\"background-color:#6dce98\"><h1 style=\"background-color:MediumSeaGreen\" >Only0 left to go!</h1><img id=\"box\" src=\"img/prizes/choc.png\"></img><img id=\"box\" src=\"img/empty/purpleopenbox.png\"></img></div>","key_press":null,"trial_type":"html-keyboard-response","trial_index":80,"time_elapsed":120176,"internal_node_id":"0.0-18.28-1.28"},{"rt":36672.59000000195,"responses":"{\"Q0\":\"it was good\",\"Q1\":\"the purple one turned out to be the best\"}","trial_type":"survey-text","trial_index":81,"time_elapsed":156855,"internal_node_id":"0.0-19.0"}]