[{"view_history":"[{\"page_index\":0,\"viewing_time\":3765.3149999969173},{\"page_index\":1,\"viewing_time\":482.5800000107847},{\"page_index\":2,\"viewing_time\":495.89999997988343},{\"page_index\":3,\"viewing_time\":540.7850000192411},{\"page_index\":4,\"viewing_time\":553.4650000045076},{\"page_index\":5,\"viewing_time\":961.539999989327}]","rt":6800.835000001825,"trial_type":"instructions","trial_index":0,"time_elapsed":6806,"internal_node_id":"0.0-0.0"},{"rt":3080.5450000043493,"responses":"{\"Q0\":\"Yes\",\"Q1\":\"Yes\",\"Q2\":\"Yes\"}","question_order":"[0,1,2]","trial_type":"survey-multi-choice","trial_index":1,"time_elapsed":9889,"internal_node_id":"0.0-1.0-0.0"},{"rt":3045.3250000136904,"responses":"{\"Q0\":\"Yes\",\"Q1\":\"Yes\",\"Q2\":\"Yes\"}","question_order":"[0,1,2]","trial_type":"survey-multi-choice","trial_index":2,"time_elapsed":12940,"internal_node_id":"0.0-2.0-0.0"},{"rt":2992.9600000032224,"responses":"{\"Q0\":\"7776\"}","trial_type":"survey-text","trial_index":3,"time_elapsed":15940,"internal_node_id":"0.0-3.0"},{"rt":2191.2650000012945,"responses":"{\"Q0\":\"Female\",\"Q1\":\"25-34\"}","question_order":"[0,1]","trial_type":"survey-multi-choice","trial_index":4,"time_elapsed":18133,"internal_node_id":"0.0-4.0"},{"view_history":"[{\"page_index\":0,\"viewing_time\":767.5650000164751}]","rt":767.9599999974016,"trial_type":"instructions","trial_index":5,"time_elapsed":18905,"internal_node_id":"0.0-5.0"},{"rt":3476.3050000183284,"responses":"{\"Interested\":2,\"Distressed\":1,\"Excited\":2,\"Upset\":2}","question_order":"[0,1,2,3]","trial_type":"survey-likert","trial_index":6,"time_elapsed":22384,"internal_node_id":"0.0-6.0"},{"rt":3382.0449999766424,"responses":"{\"Strong\":2,\"Guilty\":2,\"Scared\":2,\"Hostile\":2}","question_order":"[0,1,2,3]","trial_type":"survey-likert","trial_index":7,"time_elapsed":25772,"internal_node_id":"0.0-7.0"},{"rt":4217.729999974836,"responses":"{\"Enthusiastic\":3,\"Proud\":1,\"Irritable\":0,\"Alert\":1}","question_order":"[0,1,2,3]","trial_type":"survey-likert","trial_index":8,"time_elapsed":29995,"internal_node_id":"0.0-8.0"},{"rt":3749.985000002198,"responses":"{\"Ashamed\":2,\"Inspired\":3,\"Nervous\":1,\"Determined\":2}","question_order":"[0,1,2,3]","trial_type":"survey-likert","trial_index":9,"time_elapsed":33751,"internal_node_id":"0.0-9.0"},{"rt":4297.980000003008,"responses":"{\"Attentive\":1,\"Jittery\":2,\"Active\":3,\"Afraid\":4}","question_order":"[0,1,2,3]","trial_type":"survey-likert","trial_index":10,"time_elapsed":38054,"internal_node_id":"0.0-10.0"},{"rt":4698.644999996759,"responses":"{\"Q0\":2,\"Q1\":1,\"Q2\":0,\"Q3\":2}","question_order":"[0,1,2,3]","trial_type":"survey-likert","trial_index":11,"time_elapsed":42759,"internal_node_id":"0.0-11.0"},{"rt":4559.715000010328,"responses":"{\"Q0\":2,\"Q1\":3,\"Q2\":2,\"Q3\":1}","question_order":"[0,1,2,3]","trial_type":"survey-likert","trial_index":12,"time_elapsed":47324,"internal_node_id":"0.0-12.0"},{"rt":4615.300000004936,"responses":"{\"Q0\":1,\"Q1\":2,\"Q2\":3,\"Q3\":1}","question_order":"[0,1,2,3]","trial_type":"survey-likert","trial_index":13,"time_elapsed":51945,"internal_node_id":"0.0-13.0"},{"rt":2709.600000001956,"responses":"{\"Q0\":1,\"Q1\":2,\"Q2\":1}","question_order":"[0,1,2]","trial_type":"survey-likert","trial_index":14,"time_elapsed":54661,"internal_node_id":"0.0-14.0"},{"view_history":"[{\"page_index\":0,\"viewing_time\":589.1750000009779},{\"page_index\":1,\"viewing_time\":955.2649999968708},{\"page_index\":2,\"viewing_time\":1497.2349999879953}]","rt":3041.9849999889266,"trial_type":"instructions","trial_index":15,"time_elapsed":57711,"internal_node_id":"0.0-15.0"},{"rt":555.4750000010245,"stimulus":"<p>Choose a box,</p>","button_pressed":0,"trial_type":"html-button-response","trial_index":16,"time_elapsed":58270,"internal_node_id":"0.0-16.0-0.0"},{"rate":0.8183338780934817,"trial_type":"html-keyboard-response","trial_index":17,"time_elapsed":58270,"internal_node_id":"0.0-16.0-1.0"},{"rt":null,"stimulus":"<div style=\"background-color:#6dce98\"><h1 style=\"background-color:MediumSeaGreen\" >You won a prize! Well done!</h1><img id=\"box\" src=\"img/prizes/lolipop.png\"></img><img id=\"box\" src=\"img/empty/blueopenbox.png\"></img></div>","key_press":null,"trial_type":"html-keyboard-response","trial_index":17,"time_elapsed":59776,"internal_node_id":"0.0-16.0-1.0"},{"rt":557.2549999924377,"stimulus":"<p>Choose a box,</p>","button_pressed":0,"trial_type":"html-button-response","trial_index":18,"time_elapsed":60335,"internal_node_id":"0.0-16.0-0.1"},{"rate":0.8183338780934817,"trial_type":"html-keyboard-response","trial_index":19,"time_elapsed":60336,"internal_node_id":"0.0-16.0-1.1"},{"rt":null,"stimulus":"<div style=\"background-color:#ff7157\"><h1 style=\"background-color:Tomato\">Bad luck! There was no prize in the box!</h1><img id=\"box\" src=\"img/sad/blueopenboxsadthumb.png\"></img></div>","key_press":null,"trial_type":"html-keyboard-response","trial_index":19,"time_elapsed":61842,"internal_node_id":"0.0-16.0-1.1"},{"rt":324.09999999799766,"stimulus":"<p>Choose a box,</p>","button_pressed":1,"trial_type":"html-button-response","trial_index":20,"time_elapsed":62169,"internal_node_id":"0.0-16.0-0.2"},{"rate":0.5520213210953635,"trial_type":"html-keyboard-response","trial_index":21,"time_elapsed":62169,"internal_node_id":"0.0-16.0-1.2"},{"rt":null,"stimulus":"<div style=\"background-color:#6dce98\"><h1 style=\"background-color:MediumSeaGreen\" >You won a prize! Well done!</h1><img id=\"box\" src=\"img/prizes/lolipop.png\"></img><img id=\"box\" src=\"img/empty/greenopenbox.png\"></img></div>","key_press":null,"trial_type":"html-keyboard-response","trial_index":21,"time_elapsed":63671,"internal_node_id":"0.0-16.0-1.2"},{"view_history":"[{\"page_index\":0,\"viewing_time\":4009.1949999914505}]","rt":4009.5999999903142,"trial_type":"instructions","trial_index":22,"time_elapsed":67682,"internal_node_id":"0.0-17.0"},{"rt":570.4800000239629,"stimulus":"<p>Choose a box,</p>","button_pressed":0,"trial_type":"html-button-response","trial_index":23,"time_elapsed":68256,"internal_node_id":"0.0-18.0-0.0"},{"rate":0.6490092561923665,"trial_type":"html-keyboard-response","trial_index":24,"time_elapsed":68256,"internal_node_id":"0.0-18.0-1.0"},{"rt":null,"stimulus":"<div style=\"background-color:#6dce98\"><h1 style=\"background-color:MediumSeaGreen\" >You won a prize! Well done!</h1><img id=\"box\" src=\"img/prizes/bear.png\"></img><img id=\"box\" src=\"img/empty/blueopenbox.png\"></img></div>","key_press":null,"trial_type":"html-keyboard-response","trial_index":24,"time_elapsed":69760,"internal_node_id":"0.0-18.0-1.0"},{"rt":308.95499998587184,"stimulus":"<p>Choose a box,</p>","button_pressed":1,"trial_type":"html-button-response","trial_index":25,"time_elapsed":70072,"internal_node_id":"0.0-18.1-0.1"},{"rate":0.9781887045328369,"trial_type":"html-keyboard-response","trial_index":26,"time_elapsed":70072,"internal_node_id":"0.0-18.1-1.1"},{"rt":null,"stimulus":"<div style=\"background-color:#6dce98\"><h1 style=\"background-color:MediumSeaGreen\" >You won a prize! Well done!</h1><img id=\"box\" src=\"img/prizes/flowers.png\"></img><img id=\"box\" src=\"img/empty/greenopenbox.png\"></img></div>","key_press":null,"trial_type":"html-keyboard-response","trial_index":26,"time_elapsed":71578,"internal_node_id":"0.0-18.1-1.1"},{"rt":179.00500001269393,"stimulus":"<p>Choose a box,</p>","button_pressed":0,"trial_type":"html-button-response","trial_index":27,"time_elapsed":71760,"internal_node_id":"0.0-18.2-0.2"},{"rate":0.6490092561923665,"trial_type":"html-keyboard-response","trial_index":28,"time_elapsed":71760,"internal_node_id":"0.0-18.2-1.2"},{"rt":null,"stimulus":"<div style=\"background-color:#6dce98\"><h1 style=\"background-color:MediumSeaGreen\" >You won a prize! Well done!</h1><img id=\"box\" src=\"img/prizes/choc.png\"></img><img id=\"box\" src=\"img/empty/blueopenbox.png\"></img></div>","key_press":null,"trial_type":"html-keyboard-response","trial_index":28,"time_elapsed":73264,"internal_node_id":"0.0-18.2-1.2"},{"rt":393.2500000228174,"stimulus":"<p>Choose a box,</p>","button_pressed":1,"trial_type":"html-button-response","trial_index":29,"time_elapsed":73660,"internal_node_id":"0.0-18.3-0.3"},{"rate":0.9781887045328369,"trial_type":"html-keyboard-response","trial_index":30,"time_elapsed":73660,"internal_node_id":"0.0-18.3-1.3"},{"rt":null,"stimulus":"<div style=\"background-color:#6dce98\"><h1 style=\"background-color:MediumSeaGreen\" >You won a prize! Well done!</h1><img id=\"box\" src=\"img/prizes/lolipop.png\"></img><img id=\"box\" src=\"img/empty/greenopenbox.png\"></img></div>","key_press":null,"trial_type":"html-keyboard-response","trial_index":30,"time_elapsed":75163,"internal_node_id":"0.0-18.3-1.3"},{"rt":237.61500002001412,"stimulus":"<p>Choose a box,</p>","button_pressed":0,"trial_type":"html-button-response","trial_index":31,"time_elapsed":75404,"internal_node_id":"0.0-18.4-0.4"},{"rate":0.6490092561923665,"trial_type":"html-keyboard-response","trial_index":32,"time_elapsed":75404,"internal_node_id":"0.0-18.4-1.4"},{"rt":null,"stimulus":"<div style=\"background-color:#6dce98\"><h1 style=\"background-color:MediumSeaGreen\" >You won a prize! Well done!</h1><img id=\"box\" src=\"img/prizes/beachball.png\"></img><img id=\"box\" src=\"img/empty/blueopenbox.png\"></img></div>","key_press":null,"trial_type":"html-keyboard-response","trial_index":32,"time_elapsed":76911,"internal_node_id":"0.0-18.4-1.4"},{"rt":503.2749999954831,"stimulus":"<p>Choose a box,</p>","button_pressed":1,"trial_type":"html-button-response","trial_index":33,"time_elapsed":77417,"internal_node_id":"0.0-18.5-0.5"},{"rate":0.9781887045328369,"trial_type":"html-keyboard-response","trial_index":34,"time_elapsed":77417,"internal_node_id":"0.0-18.5-1.5"},{"rt":null,"stimulus":"<div style=\"background-color:#6dce98\"><h1 style=\"background-color:MediumSeaGreen\" >You won a prize! Well done!</h1><img id=\"box\" src=\"img/prizes/lolipop.png\"></img><img id=\"box\" src=\"img/empty/greenopenbox.png\"></img></div>","key_press":null,"trial_type":"html-keyboard-response","trial_index":34,"time_elapsed":78919,"internal_node_id":"0.0-18.5-1.5"},{"rt":207.22000001114793,"stimulus":"<p>Choose a box,</p>","button_pressed":0,"trial_type":"html-button-response","trial_index":35,"time_elapsed":79129,"internal_node_id":"0.0-18.6-0.6"},{"rate":0.6490092561923665,"trial_type":"html-keyboard-response","trial_index":36,"time_elapsed":79130,"internal_node_id":"0.0-18.6-1.6"},{"rt":null,"stimulus":"<div style=\"background-color:#6dce98\"><h1 style=\"background-color:MediumSeaGreen\" >You won a prize! Well done!</h1><img id=\"box\" src=\"img/prizes/beachball.png\"></img><img id=\"box\" src=\"img/empty/blueopenbox.png\"></img></div>","key_press":null,"trial_type":"html-keyboard-response","trial_index":36,"time_elapsed":80636,"internal_node_id":"0.0-18.6-1.6"},{"rt":250.30000001424924,"stimulus":"<p>Choose a box,</p>","button_pressed":1,"trial_type":"html-button-response","trial_index":37,"time_elapsed":80889,"internal_node_id":"0.0-18.7-0.7"},{"rate":0.9781887045328369,"trial_type":"html-keyboard-response","trial_index":38,"time_elapsed":80890,"internal_node_id":"0.0-18.7-1.7"},{"rt":null,"stimulus":"<div style=\"background-color:#6dce98\"><h1 style=\"background-color:MediumSeaGreen\" >You won a prize! Well done!</h1><img id=\"box\" src=\"img/prizes/flowers.png\"></img><img id=\"box\" src=\"img/empty/greenopenbox.png\"></img></div>","key_press":null,"trial_type":"html-keyboard-response","trial_index":38,"time_elapsed":82394,"internal_node_id":"0.0-18.7-1.7"},{"rt":301.8900000024587,"stimulus":"<p>Choose a box,</p>","button_pressed":0,"trial_type":"html-button-response","trial_index":39,"time_elapsed":82699,"internal_node_id":"0.0-18.8-0.8"},{"rate":0.6490092561923665,"trial_type":"html-keyboard-response","trial_index":40,"time_elapsed":82699,"internal_node_id":"0.0-18.8-1.8"},{"rt":null,"stimulus":"<div style=\"background-color:#ff7157\"><h1 style=\"background-color:Tomato\">Bad luck! There was no prize in the box!</h1><img id=\"box\" src=\"img/sad/blueopenboxsadthumb.png\"></img></div>","key_press":null,"trial_type":"html-keyboard-response","trial_index":40,"time_elapsed":84202,"internal_node_id":"0.0-18.8-1.8"},{"rt":302.43500001961365,"stimulus":"<p>Choose a box,</p>","button_pressed":1,"trial_type":"html-button-response","trial_index":41,"time_elapsed":84508,"internal_node_id":"0.0-18.9-0.9"},{"rate":0.9781887045328369,"trial_type":"html-keyboard-response","trial_index":42,"time_elapsed":84508,"internal_node_id":"0.0-18.9-1.9"},{"rt":null,"stimulus":"<div style=\"background-color:#6dce98\"><h1 style=\"background-color:MediumSeaGreen\" >You won a prize! Well done!</h1><img id=\"box\" src=\"img/prizes/ring.png\"></img><img id=\"box\" src=\"img/empty/greenopenbox.png\"></img></div>","key_press":null,"trial_type":"html-keyboard-response","trial_index":42,"time_elapsed":86012,"internal_node_id":"0.0-18.9-1.9"},{"rt":268.78000001306646,"stimulus":"<p>Choose a box,</p>","button_pressed":1,"trial_type":"html-button-response","trial_index":43,"time_elapsed":86284,"internal_node_id":"0.0-18.10-0.10"},{"rate":0.9781887045328369,"trial_type":"html-keyboard-response","trial_index":44,"time_elapsed":86284,"internal_node_id":"0.0-18.10-1.10"},{"rt":null,"stimulus":"<div style=\"background-color:#6dce98\"><h1 style=\"background-color:MediumSeaGreen\" >You won a prize! Well done!</h1><img id=\"box\" src=\"img/prizes/beachball.png\"></img><img id=\"box\" src=\"img/empty/greenopenbox.png\"></img></div>","key_press":null,"trial_type":"html-keyboard-response","trial_index":44,"time_elapsed":87791,"internal_node_id":"0.0-18.10-1.10"},{"rt":315.4400000057649,"stimulus":"<p>Choose a box,</p>","button_pressed":1,"trial_type":"html-button-response","trial_index":45,"time_elapsed":88109,"internal_node_id":"0.0-18.11-0.11"},{"rate":0.9781887045328369,"trial_type":"html-keyboard-response","trial_index":46,"time_elapsed":88109,"internal_node_id":"0.0-18.11-1.11"},{"rt":null,"stimulus":"<div style=\"background-color:#6dce98\"><h1 style=\"background-color:MediumSeaGreen\" >You won a prize! Well done!</h1><img id=\"box\" src=\"img/prizes/bear.png\"></img><img id=\"box\" src=\"img/empty/greenopenbox.png\"></img></div>","key_press":null,"trial_type":"html-keyboard-response","trial_index":46,"time_elapsed":89616,"internal_node_id":"0.0-18.11-1.11"},{"rt":218.33000000333413,"stimulus":"<p>Choose a box,</p>","button_pressed":1,"trial_type":"html-button-response","trial_index":47,"time_elapsed":89837,"internal_node_id":"0.0-18.12-0.12"},{"rate":0.9781887045328369,"trial_type":"html-keyboard-response","trial_index":48,"time_elapsed":89837,"internal_node_id":"0.0-18.12-1.12"},{"rt":null,"stimulus":"<div style=\"background-color:#6dce98\"><h1 style=\"background-color:MediumSeaGreen\" >You won a prize! Well done!</h1><img id=\"box\" src=\"img/prizes/choc.png\"></img><img id=\"box\" src=\"img/empty/greenopenbox.png\"></img></div>","key_press":null,"trial_type":"html-keyboard-response","trial_index":48,"time_elapsed":91340,"internal_node_id":"0.0-18.12-1.12"},{"rt":254.76499999058433,"stimulus":"<p>Choose a box,</p>","button_pressed":1,"trial_type":"html-button-response","trial_index":49,"time_elapsed":91597,"internal_node_id":"0.0-18.13-0.13"},{"rate":0.9781887045328369,"trial_type":"html-keyboard-response","trial_index":50,"time_elapsed":91598,"internal_node_id":"0.0-18.13-1.13"},{"rt":null,"stimulus":"<div style=\"background-color:#6dce98\"><h1 style=\"background-color:MediumSeaGreen\" >You won a prize! Well done!</h1><img id=\"box\" src=\"img/prizes/yoyo.png\"></img><img id=\"box\" src=\"img/empty/greenopenbox.png\"></img></div>","key_press":null,"trial_type":"html-keyboard-response","trial_index":50,"time_elapsed":93101,"internal_node_id":"0.0-18.13-1.13"},{"rt":227.8050000022631,"stimulus":"<p>Choose a box,</p>","button_pressed":1,"trial_type":"html-button-response","trial_index":51,"time_elapsed":93331,"internal_node_id":"0.0-18.14-0.14"},{"rate":0.9781887045328369,"trial_type":"html-keyboard-response","trial_index":52,"time_elapsed":93331,"internal_node_id":"0.0-18.14-1.14"},{"rt":null,"stimulus":"<div style=\"background-color:#6dce98\"><h1 style=\"background-color:MediumSeaGreen\" >You won a prize! Well done!</h1><img id=\"box\" src=\"img/prizes/bear.png\"></img><img id=\"box\" src=\"img/empty/greenopenbox.png\"></img></div>","key_press":null,"trial_type":"html-keyboard-response","trial_index":52,"time_elapsed":94834,"internal_node_id":"0.0-18.14-1.14"},{"rt":372.7800000051502,"stimulus":"<p>Choose a box,</p>","button_pressed":1,"trial_type":"html-button-response","trial_index":53,"time_elapsed":95209,"internal_node_id":"0.0-18.15-0.15"},{"rate":0.9781887045328369,"trial_type":"html-keyboard-response","trial_index":54,"time_elapsed":95209,"internal_node_id":"0.0-18.15-1.15"},{"rt":null,"stimulus":"<div style=\"background-color:#6dce98\"><h1 style=\"background-color:MediumSeaGreen\" >You won a prize! Well done!</h1><img id=\"box\" src=\"img/prizes/coins.png\"></img><img id=\"box\" src=\"img/empty/greenopenbox.png\"></img></div>","key_press":null,"trial_type":"html-keyboard-response","trial_index":54,"time_elapsed":96711,"internal_node_id":"0.0-18.15-1.15"},{"rt":319.8300000221934,"stimulus":"<p>Choose a box,</p>","button_pressed":1,"trial_type":"html-button-response","trial_index":55,"time_elapsed":97034,"internal_node_id":"0.0-18.16-0.16"},{"rate":0.9781887045328369,"trial_type":"html-keyboard-response","trial_index":56,"time_elapsed":97035,"internal_node_id":"0.0-18.16-1.16"},{"rt":null,"stimulus":"<div style=\"background-color:#6dce98\"><h1 style=\"background-color:MediumSeaGreen\" >You won a prize! Well done!</h1><img id=\"box\" src=\"img/prizes/yoyo.png\"></img><img id=\"box\" src=\"img/empty/greenopenbox.png\"></img></div>","key_press":null,"trial_type":"html-keyboard-response","trial_index":56,"time_elapsed":98541,"internal_node_id":"0.0-18.16-1.16"},{"rt":248.9800000039395,"stimulus":"<p>Choose a box,</p>","button_pressed":1,"trial_type":"html-button-response","trial_index":57,"time_elapsed":98793,"internal_node_id":"0.0-18.17-0.17"},{"rate":0.9781887045328369,"trial_type":"html-keyboard-response","trial_index":58,"time_elapsed":98793,"internal_node_id":"0.0-18.17-1.17"},{"rt":null,"stimulus":"<div style=\"background-color:#6dce98\"><h1 style=\"background-color:MediumSeaGreen\" >You won a prize! Well done!</h1><img id=\"box\" src=\"img/prizes/duck.png\"></img><img id=\"box\" src=\"img/empty/greenopenbox.png\"></img></div>","key_press":null,"trial_type":"html-keyboard-response","trial_index":58,"time_elapsed":100296,"internal_node_id":"0.0-18.17-1.17"},{"rt":475.7300000055693,"stimulus":"<p>Choose a box,</p>","button_pressed":1,"trial_type":"html-button-response","trial_index":59,"time_elapsed":100774,"internal_node_id":"0.0-18.18-0.18"},{"rate":0.9781887045328369,"trial_type":"html-keyboard-response","trial_index":60,"time_elapsed":100774,"internal_node_id":"0.0-18.18-1.18"},{"rt":null,"stimulus":"<div style=\"background-color:#6dce98\"><h1 style=\"background-color:MediumSeaGreen\" >You won a prize! Well done!</h1><img id=\"box\" src=\"img/prizes/ring.png\"></img><img id=\"box\" src=\"img/empty/greenopenbox.png\"></img></div>","key_press":null,"trial_type":"html-keyboard-response","trial_index":60,"time_elapsed":102785,"internal_node_id":"0.0-18.18-1.18"},{"rt":1862.9500000097323,"stimulus":"<p>Choose a box,</p>","button_pressed":1,"trial_type":"html-button-response","trial_index":61,"time_elapsed":104650,"internal_node_id":"0.0-18.19-0.19"},{"rate":0.9781887045328369,"trial_type":"html-keyboard-response","trial_index":62,"time_elapsed":104652,"internal_node_id":"0.0-18.19-1.19"},{"rt":null,"stimulus":"<div style=\"background-color:#6dce98\"><h1 style=\"background-color:MediumSeaGreen\" >You won a prize! Well done!</h1><img id=\"box\" src=\"img/prizes/bear.png\"></img><img id=\"box\" src=\"img/empty/greenopenbox.png\"></img></div>","key_press":null,"trial_type":"html-keyboard-response","trial_index":62,"time_elapsed":106156,"internal_node_id":"0.0-18.19-1.19"},{"rt":251.1100000119768,"stimulus":"<p>Choose a box,</p>","button_pressed":1,"trial_type":"html-button-response","trial_index":63,"time_elapsed":106410,"internal_node_id":"0.0-18.20-0.20"},{"rate":0.9781887045328369,"trial_type":"html-keyboard-response","trial_index":64,"time_elapsed":106410,"internal_node_id":"0.0-18.20-1.20"},{"rt":null,"stimulus":"<div style=\"background-color:#6dce98\"><h1 style=\"background-color:MediumSeaGreen\" >You won a prize! Well done!</h1><img id=\"box\" src=\"img/prizes/choc.png\"></img><img id=\"box\" src=\"img/empty/greenopenbox.png\"></img></div>","key_press":null,"trial_type":"html-keyboard-response","trial_index":64,"time_elapsed":107913,"internal_node_id":"0.0-18.20-1.20"}]